{
    "entry":[
        {
            "fullUrl": "https://psp-lt-fhir.dev.sanit.cineca.it:443/fhir/Observation/7977",
            "resource": {
                "resourceType": "Observation",
                "id": "7977",
                "meta": {
                    "versionId": "1",
                    "lastUpdated": "2022-05-04T19:53:46.590+02:00",
                    "source": "#G3DyA41cRTl1Xlmw",
                    "profile": [
                        "http://hl7.eu/fhir/ig/pcsp/StructureDefinition/Observation-cumulativeDoseRad-eu-pcsp"
                    ]
                },
                "status": "final",
                "category": [
                    {
                        "coding": [
                            {
                                "system": "http://terminology.hl7.org/CodeSystem/observation-category",
                                "code": "procedure"
                            }
                        ]
                    }
                ],
                "code": {
                    "coding": [
                        {
                            "system": "http://hl7.eu/fhir/ig/pcsp/ValueSet/vs-radiotherapyDoseType-eu-pcsp",
                            "code": "445461008",
                            "display": "Total radiation dose delivered"
                        }
                    ]
                },
                "subject": {
                    "reference": "Patient/2953"
                },
                "valueQuantity": {
                    "value": 20,
                    "unit": "Gy",
                    "system": "http://unitsofmeasure.org",
                    "code": "Gy"
                }
            },
            "search": {
                "mode": "match"
            }
        },
        {
            "fullUrl": "https://psp-lt-fhir.dev.sanit.cineca.it:443/fhir/Procedure/7978",
            "resource": {
                "resourceType": "Procedure",
                "id": "7978",
                "meta": {
                    "versionId": "1",
                    "lastUpdated": "2022-05-04T19:53:47.682+02:00",
                    "source": "#SZouc1oHiFdkgT3W",
                    "profile": [
                        "http://hl7.eu/fhir/ig/pcsp/StructureDefinition/Procedure-radiotheraphy-eu-pcsp"
                    ]
                },
                "extension": [
                    {
                        "url": "http://hl7.eu/fhir/ig/pcsp/StructureDefinition/resource-relatedInfo",
                        "valueReference": {
                            "reference": "Observation/7977"
                        }
                    }
                ],
                "status": "completed",
                "category": {
                    "coding": [
                        {
                            "system": "http://snomed.info/sct",
                            "code": "108290001",
                            "display": "Radiotherapy"
                        }
                    ]
                },
                "code": {
                    "coding": [
                        {
                            "system": "http://hl7.eu/fhir/ig/pcsp/ValueSet/vs-radiotherapyType-eu-pcsp",
                            "code": "399315003",
                            "display": "Radionuclide therapy"
                        }
                    ]
                },
                "subject": {
                    "reference": "Patient/2953"
                },
                "performedPeriod": {
                    "start": "2017-03-06T00:00:00+01:00"
                },
                "location": {
                    "reference": "Location/6963"
                },
                "reasonReference": [
                    {
                        "reference": "Condition/6966"
                    }
                ]
            },
            "search": {
                "mode": "match"
            }
        },
        {
            "fullUrl": "https://psp-lt-fhir.dev.sanit.cineca.it:443/fhir/Observation/7979",
            "resource": {
                "resourceType": "Observation",
                "id": "7979",
                "meta": {
                    "versionId": "3",
                    "lastUpdated": "2022-05-04T20:15:24.454+02:00",
                    "source": "#I3uLsPCb4Fh1JzWd",
                    "profile": [
                        "http://hl7.eu/fhir/ig/pcsp/StructureDefinition/Observation-cumulativeDoseRad-eu-pcsp"
                    ]
                },
                "status": "final",
                "category": [
                    {
                        "coding": [
                            {
                                "system": "http://terminology.hl7.org/CodeSystem/observation-category",
                                "code": "procedure"
                            }
                        ]
                    }
                ],
                "code": {
                    "coding": [
                        {
                            "system": "http://hl7.eu/fhir/ig/pcsp/ValueSet/vs-radiotherapyDoseType-eu-pcsp",
                            "code": "445565002",
                            "display": "Total boost radiation dose delivered"
                        }
                    ]
                },
                "subject": {
                    "reference": "Patient/2953"
                },
                "valueQuantity": {
                    "value": 5,
                    "unit": "Gy",
                    "system": "http://unitsofmeasure.org",
                    "code": "Gy"
                }
            },
            "search": {
                "mode": "match"
            }
        },
        {
            "fullUrl": "https://psp-lt-fhir.dev.sanit.cineca.it:443/fhir/Procedure/7980",
            "resource": {
                "resourceType": "Procedure",
                "id": "7980",
                "meta": {
                    "versionId": "2",
                    "lastUpdated": "2022-05-06T12:36:20.601+02:00",
                    "source": "#Pkm6jXnu8f3YH65D",
                    "profile": [
                        "http://hl7.eu/fhir/ig/pcsp/StructureDefinition/Procedure-radiotheraphyBoost-eu-pcsp"
                    ]
                },
                "extension": [
                    {
                        "url": "http://hl7.eu/fhir/ig/pcsp/StructureDefinition/resource-relatedInfo",
                        "valueReference": {
                            "reference": "Observation/7979"
                        }
                    }
                ],
                "partOf": [
                    {
                        "reference": "Procedure/7978"
                    }
                ],
                "status": "completed",
                "category": {
                    "coding": [
                        {
                            "system": "http://snomed.info/sct",
                            "code": "108290001",
                            "display": "Radiotherapy"
                        }
                    ]
                },
                "code": {
                    "coding": [
                        {
                            "system": "http://hl7.eu/fhir/ig/pcsp/ValueSet/vs-radiotherapyType-eu-pcsp",
                            "code": "445232009",
                            "display": "Boost radiation therapy"
                        }
                    ]
                },
                "subject": {
                    "reference": "Patient/2953"
                },
                "location": {
                    "reference": "Location/6963"
                },
                "reasonReference": [
                    {
                        "reference": "Condition/6966"
                    }
                ]
            },
            "search": {
                "mode": "match"
            }
        }
    ]
}