{
	"resourceType": "Bundle",
	"id": "da2e1f08-799e-4217-9401-fd48c6c0d2b7",
	"meta": {
		"lastUpdated": "2025-07-14T12:31:07.504+02:00"
	},
	"type": "searchset",
	"total": 15,
	"link": [
		{
			"relation": "self",
			"url": "https://de-fhir.survivorshippassport.org:443/fhir/Patient/35964/$everything?_count=1000"
		}
	],
	"entry": [
		{
			"fullUrl": "https://de-fhir.survivorshippassport.org:443/fhir/Patient/35964",
			"resource": {
				"resourceType": "Patient",
				"id": "35964",
				"meta": {
					"versionId": "3",
					"lastUpdated": "2025-07-01T14:53:17.223+02:00",
					"source": "#jZ5gKvf6qz9Gcjm1"
				},
				"language": "de",
				"text": {
					"status": "generated"
				},
				"extension": [
					{
						"url": "http://hl7.org/fhir/StructureDefinition/patient-birthPlace",
						"valueAddress": {
							"city": "CITY"
						}
					}
				],
				"name": [
					{
						"use": "official",
						"family": "Mario",
						"given": [
							"Germania"
						]
					},
					{
						"use": "old",
						"family": "Germania"
					}
				],
				"telecom": [
					{
						"system": "email",
						"value": "test@test.it"
					},
					{
						"system": "phone",
						"value": "3931234567"
					}
				],
				"gender": "male",
				"birthDate": "2007-10-10",
				"contact": [
					{
						"relationship": [
							{
								"coding": [
									{
										"system": "http://terminology.hl7.org/CodeSystem/v3-RoleCode",
										"code": "PRN"
									}
								]
							}
						],
						"telecom": [
							{
								"system": "email",
								"value": "test@test.it"
							},
							{
								"system": "phone",
								"value": "391234578"
							}
						]
					}
				]
			},
			"search": {
				"mode": "match"
			}
		},
		{
			"fullUrl": "https://de-fhir.survivorshippassport.org:443/fhir/Observation/35969",
			"resource": {
				"resourceType": "Observation",
				"id": "35969",
				"meta": {
					"versionId": "2",
					"lastUpdated": "2024-09-30T23:25:21.321+02:00",
					"source": "#OIAPdOFghjbUeFCA"
				},
				"status": "final",
				"category": [
					{
						"coding": [
							{
								"system": "http://terminology.hl7.org/CodeSystem/observation-category",
								"code": "procedure"
							}
						]
					}
				],
				"code": {
					"coding": [
						{
							"system": "http://snomed.info/sct",
							"code": "445461008",
							"display": "Total radiation dose delivered"
						}
					]
				},
				"subject": {
					"reference": "Patient/35964"
				},
				"valueQuantity": {
					"value": -9922,
					"system": "http://unitsofmeasure.org",
					"code": "Gy"
				}
			},
			"search": {
				"mode": "match"
			}
		},
		{
			"fullUrl": "https://de-fhir.survivorshippassport.org:443/fhir/Condition/35965",
			"resource": {
				"resourceType": "Condition",
				"id": "35965",
				"meta": {
					"versionId": "3",
					"lastUpdated": "2025-01-22T09:59:05.429+01:00",
					"source": "#kQ832A1hTlAc9mzi"
				},
				"extension": [
					{
						"url": "http://hl7.org/fhir/StructureDefinition/condition-assertedDate",
						"valueDateTime": "2014-01-07"
					},
					{
						"url": "http://hl7.org/fhir/us/mcode/StructureDefinition/mcode-histology-morphology-behavior",
						"valueCodeableConcept": {
							"coding": [
								{
									"system": "http://terminology.hl7.org/CodeSystem/icd-o-3",
									"code": "9350/1"
								}
							]
						}
					},
					{
						"url": "http://hl7.eu/fhir/ig/pcsp/StructureDefinition/condition-previousStatus",
						"valueCodeableConcept": {
							"coding": [
								{
									"system": "http://terminology.hl7.org/CodeSystem/condition-clinical",
									"code": "inactive"
								}
							]
						}
					}
				],
				"code": {
					"text": "Kraniopharyngeom"
				},
				"bodySite": [
					{
						"extension": [
							{
								"url": "http://hl7.eu/fhir/ig/pcsp/StructureDefinition/mcode-laterality-qualifier",
								"valueCodeableConcept": {
									"coding": [
										{
											"system": "http://terminology.hl7.org/CodeSystem/data-absent-reason",
											"code": "unknown"
										}
									]
								}
							}
						],
						"coding": [
							{
								"system": "http://terminology.hl7.org/CodeSystem/icd-o-3",
								"code": "C71.0"
							}
						],
						"text": "Zerebrum"
					}
				],
				"subject": {
					"reference": "Patient/35964"
				},
				"encounter": {
					"reference": "Encounter/37952"
				}
			},
			"search": {
				"mode": "match"
			}
		},
		{
			"fullUrl": "https://de-fhir.survivorshippassport.org:443/fhir/Procedure/35968",
			"resource": {
				"resourceType": "Procedure",
				"id": "35968",
				"meta": {
					"versionId": "2",
					"lastUpdated": "2024-09-30T23:23:25.836+02:00",
					"source": "#a2AFg8VR3t3sLfpS"
				},
				"instantiatesCanonical": [
					"https://de-fhir.survivorshippassport.org/fhir/PlanDefinition/37331"
				],
				"status": "completed",
				"category": {
					"coding": [
						{
							"system": "http://snomed.info/sct",
							"code": "708255002",
							"display": "First line treatment"
						}
					]
				},
				"subject": {
					"reference": "Patient/35964"
				},
				"performedPeriod": {
					"end": "2015-03-23"
				},
				"reasonReference": [
					{
						"reference": "Condition/35965"
					}
				]
			},
			"search": {
				"mode": "match"
			}
		},
		{
			"fullUrl": "https://de-fhir.survivorshippassport.org:443/fhir/Procedure/35970",
			"resource": {
				"resourceType": "Procedure",
				"id": "35970",
				"meta": {
					"versionId": "2",
					"lastUpdated": "2024-09-30T23:25:20.646+02:00",
					"source": "#baN6erDMLHQt94dS"
				},
				"extension": [
					{
						"url": "http://hl7.eu/fhir/ig/pcsp/StructureDefinition/resource-relatedInfo",
						"valueReference": {
							"reference": "Observation/35969"
						}
					}
				],
				"status": "completed",
				"category": {
					"coding": [
						{
							"system": "http://snomed.info/sct",
							"code": "108290001",
							"display": "Radiotherapy"
						}
					]
				},
				"code": {
					"coding": [
						{
							"system": "http://snomed.info/sct",
							"code": "33195004"
						}
					]
				},
				"subject": {
					"reference": "Patient/35964"
				},
				"performedPeriod": {
					"start": "2015-02-09",
					"end": "2015-03-23"
				},
				"reasonReference": [
					{
						"reference": "Condition/35965"
					}
				],
				"usedCode": [
					{
						"coding": [
							{
								"system": "http://hl7.eu/fhir/ig/pcsp/CodeSystem/cs-generic-eu-pcsp",
								"code": "proton-beam"
							}
						]
					}
				]
			},
			"search": {
				"mode": "match"
			}
		},
		{
			"fullUrl": "https://de-fhir.survivorshippassport.org:443/fhir/DocumentReference/37367",
			"resource": {
				"resourceType": "DocumentReference",
				"id": "37367",
				"meta": {
					"versionId": "1",
					"lastUpdated": "2024-09-30T23:26:16.059+02:00",
					"source": "#zK5HA4f9fo9CtLiw"
				},
				"type": {
					"coding": [
						{
							"system": "http://hl7.eu/fhir/ig/pcsp/CodeSystem/cs-generic-eu-pcsp",
							"code": "surpass"
						}
					]
				},
				"subject": {
					"reference": "Patient/35964"
				},
				"content": [
					{
						"attachment": {
							"language": "it",
							"data": "",
							"title": "passport-112_1.it.pdf.enc"
						}
					},
					{
						"attachment": {
							"language": "es",
							"data": "",
							"title": "passport-112_1.es.pdf.enc"
						}
					},
					{
						"attachment": {
							"language": "lt",
							"data": "",
							"title": "passport-112_1.lt.pdf.enc"
						}
					},
					{
						"attachment": {
							"language": "de",
							"data": "",
							"title": "passport-112_1.de.pdf.enc"
						}
					},
					{
						"attachment": {
							"language": "be",
							"data": "",
							"title": "passport-112_1.be.pdf.enc"
						}
					},
					{
						"attachment": {
							"language": "en",
							"data": "",
							"title": "passport-112_1.en.pdf.enc"
						}
					}
				],
				"context": {
					"related": [
						{
							"reference": "Condition/35965"
						}
					]
				}
			},
			"search": {
				"mode": "match"
			}
		},
		{
			"fullUrl": "https://de-fhir.survivorshippassport.org:443/fhir/Composition/37376",
			"resource": {
				"resourceType": "Composition",
				"id": "37376",
				"meta": {
					"versionId": "2",
					"lastUpdated": "2025-02-14T09:02:54.703+01:00",
					"source": "#prZlupz97dAWo5JD"
				},
				"type": {
					"coding": [
						{
							"system": "http://hl7.eu/fhir/ig/pcsp/CodeSystem/cs-generic-eu-pcsp",
							"code": "surpass"
						}
					]
				},
				"subject": {
					"reference": "Patient/35964"
				},
				"date": "2025-02-14",
				"title": "Childhood Cancer Survivor Passport",
				"section": [
					{
						"title": "Care Plan",
						"code": {
							"coding": [
								{
									"system": "http://loinc.org",
									"code": "18776-5"
								}
							]
						},
						"entry": [
							{
								"reference": "CarePlan/37334"
							},
							{
								"reference": "DocumentReference/37367"
							},
							{
								"reference": "CarePlan/38952"
							},
							{
								"reference": "DocumentReference/37954"
							}
						]
					},
					{
						"title": "Diagnosis",
						"code": {
							"coding": [
								{
									"system": "http://loinc.org",
									"code": "72135-7"
								}
							]
						},
						"entry": [
							{
								"reference": "Condition/35965"
							},
							{
								"reference": "Procedure/35968"
							}
						],
						"section": [
							{
								"title": "Radiation Therapy Episode",
								"code": {
									"coding": [
										{
											"system": "http://hl7.eu/fhir/ig/pcsp/CodeSystem/cs-generic-eu-pcsp",
											"code": "section-rt"
										}
									]
								},
								"entry": [
									{
										"reference": "Procedure/35970"
									},
									{
										"reference": "Procedure/37332"
									}
								]
							},
							{
								"title": "Major Surgery",
								"code": {
									"coding": [
										{
											"system": "http://loinc.org",
											"code": "8690-0"
										}
									]
								},
								"entry": [
									{
										"reference": "Procedure/37333"
									}
								]
							}
						]
					}
				]
			},
			"search": {
				"mode": "match"
			}
		},
		{
			"fullUrl": "https://de-fhir.survivorshippassport.org:443/fhir/Procedure/37333",
			"resource": {
				"resourceType": "Procedure",
				"id": "37333",
				"meta": {
					"versionId": "2",
					"lastUpdated": "2024-09-30T23:25:49.206+02:00",
					"source": "#cYI4QdoJMJH6pMiV"
				},
				"text": {
					"div": "<div xmlns=\"http://www.w3.org/1999/xhtml\">Subtotale Entfernung eines Kraniopharyngeoms ber einen rechts fronto-temporal Zugang am 10.01.2014</div>"
				},
				"category": {
					"coding": [
						{
							"system": "http://snomed.info/sct",
							"code": "387713003"
						}
					]
				},
				"subject": {
					"reference": "Patient/35964"
				},
				"performedDateTime": "2014-01-10",
				"location": {
					"reference": "Location/37366"
				},
				"reasonReference": [
					{
						"reference": "Condition/35965"
					}
				],
				"bodySite": [
					{
						"coding": [
							{
								"system": "http://snomed.info/sct",
								"code": "12738006"
							}
						]
					}
				]
			},
			"search": {
				"mode": "match"
			}
		},
		{
			"fullUrl": "https://de-fhir.survivorshippassport.org:443/fhir/DocumentReference/37954",
			"resource": {
				"resourceType": "DocumentReference",
				"id": "37954",
				"meta": {
					"versionId": "1",
					"lastUpdated": "2025-02-14T09:02:27.010+01:00",
					"source": "#L2kKK54RUxuq6MNB"
				},
				"type": {
					"coding": [
						{
							"system": "http://hl7.eu/fhir/ig/pcsp/CodeSystem/cs-generic-eu-pcsp",
							"code": "surpass"
						}
					]
				},
				"subject": {
					"reference": "Patient/35964"
				},
				"content": [
					{
						"attachment": {
							"language": "it",
							"data": "",
							"title": "passport-112_1.it.pdf.enc"
						}
					},
					{
						"attachment": {
							"language": "es",
							"data": "",
							"title": "passport-112_1.es.pdf.enc"
						}
					},
					{
						"attachment": {
							"language": "lt",
							"data": "",
							"title": "passport-112_1.lt.pdf.enc"
						}
					},
					{
						"attachment": {
							"language": "de",
							"data": "",
							"title": "passport-112_1.de.pdf.enc"
						}
					},
					{
						"attachment": {
							"language": "be",
							"data": "",
							"title": "passport-112_1.be.pdf.enc"
						}
					},
					{
						"attachment": {
							"language": "en",
							"data": "",
							"title": "passport-112_1.en.pdf.enc"
						}
					}
				],
				"context": {
					"related": [
						{
							"reference": "Condition/35965"
						}
					]
				}
			},
			"search": {
				"mode": "match"
			}
		},
		{
			"fullUrl": "https://de-fhir.survivorshippassport.org:443/fhir/Procedure/37332",
			"resource": {
				"resourceType": "Procedure",
				"id": "37332",
				"meta": {
					"versionId": "2",
					"lastUpdated": "2024-09-30T23:25:23.943+02:00",
					"source": "#bk3et676Z6acUkXR"
				},
				"extension": [
					{
						"url": "http://hl7.eu/fhir/ig/pcsp/StructureDefinition/procedure-performedTiming",
						"valueTiming": {
							"repeat": {
								"count": -9922
							}
						}
					},
					{
						"url": "http://hl7.eu/fhir/ig/pcsp/StructureDefinition/resource-relatedInfo",
						"valueReference": {
							"reference": "Observation/35969"
						}
					}
				],
				"partOf": [
					{
						"reference": "Procedure/35970"
					}
				],
				"category": {
					"coding": [
						{
							"system": "http://snomed.info/sct",
							"code": "108290001"
						}
					]
				},
				"code": {
					"coding": [
						{
							"system": "http://snomed.info/sct",
							"code": "33195004"
						}
					]
				},
				"subject": {
					"reference": "Patient/35964"
				},
				"reasonReference": [
					{
						"reference": "Condition/35965"
					}
				],
				"bodySite": [
					{
						"coding": [
							{
								"system": "http://hl7.eu/fhir/ig/pcsp/CodeSystem/cs-radiotherapy-pcsp",
								"code": "1.7"
							}
						]
					},
					{
						"coding": [
							{
								"display": "Bestrahlung des Kraniopharyngeoms Schdelbasis/ Hypophyse"
							}
						]
					}
				]
			},
			"search": {
				"mode": "match"
			}
		},
		{
			"fullUrl": "https://de-fhir.survivorshippassport.org:443/fhir/CarePlan/37334",
			"resource": {
				"resourceType": "CarePlan",
				"id": "37334",
				"meta": {
					"versionId": "2",
					"lastUpdated": "2024-09-30T23:26:26.824+02:00",
					"source": "#CSMAUpJIk5fWwCxL"
				},
				"subject": {
					"reference": "Patient/35964"
				},
				"created": "2024-09-30",
				"addresses": [
					{
						"reference": "Condition/35965"
					}
				],
				"activity": [
					{
						"detail": {
							"code": {
								"coding": [
									{
										"system": "http://hl7.eu/fhir/ig/pcsp/CodeSystem/cs-recommendation-eu-pcsp",
										"code": "1"
									}
								]
							},
							"reasonCode": [
								{
									"coding": [
										{
											"system": "http://hl7.eu/fhir/ig/pcsp/CodeSystem/cs-riskcondition-eu-pcsp",
											"code": "1"
										}
									]
								}
							],
							"reasonReference": [
								{
									"reference": "Observation/37368"
								}
							],
							"status": "not-started"
						}
					},
					{
						"detail": {
							"code": {
								"coding": [
									{
										"system": "http://hl7.eu/fhir/ig/pcsp/CodeSystem/cs-recommendation-eu-pcsp",
										"code": "2"
									}
								]
							},
							"reasonCode": [
								{
									"coding": [
										{
											"system": "http://hl7.eu/fhir/ig/pcsp/CodeSystem/cs-riskcondition-eu-pcsp",
											"code": "2"
										}
									]
								}
							],
							"status": "cancelled"
						}
					},
					{
						"detail": {
							"code": {
								"coding": [
									{
										"system": "http://hl7.eu/fhir/ig/pcsp/CodeSystem/cs-recommendation-eu-pcsp",
										"code": "3"
									}
								]
							},
							"reasonCode": [
								{
									"coding": [
										{
											"system": "http://hl7.eu/fhir/ig/pcsp/CodeSystem/cs-riskcondition-eu-pcsp",
											"code": "3"
										}
									]
								}
							],
							"status": "cancelled"
						}
					},
					{
						"detail": {
							"code": {
								"coding": [
									{
										"system": "http://hl7.eu/fhir/ig/pcsp/CodeSystem/cs-recommendation-eu-pcsp",
										"code": "4"
									}
								]
							},
							"reasonCode": [
								{
									"coding": [
										{
											"system": "http://hl7.eu/fhir/ig/pcsp/CodeSystem/cs-riskcondition-eu-pcsp",
											"code": "4"
										}
									]
								}
							],
							"status": "cancelled"
						}
					},
					{
						"detail": {
							"code": {
								"coding": [
									{
										"system": "http://hl7.eu/fhir/ig/pcsp/CodeSystem/cs-recommendation-eu-pcsp",
										"code": "5"
									}
								]
							},
							"reasonCode": [
								{
									"coding": [
										{
											"system": "http://hl7.eu/fhir/ig/pcsp/CodeSystem/cs-riskcondition-eu-pcsp",
											"code": "5"
										}
									]
								}
							],
							"status": "cancelled"
						}
					},
					{
						"detail": {
							"code": {
								"coding": [
									{
										"system": "http://hl7.eu/fhir/ig/pcsp/CodeSystem/cs-recommendation-eu-pcsp",
										"code": "6"
									}
								]
							},
							"reasonCode": [
								{
									"coding": [
										{
											"system": "http://hl7.eu/fhir/ig/pcsp/CodeSystem/cs-riskcondition-eu-pcsp",
											"code": "6"
										}
									]
								}
							],
							"status": "cancelled"
						}
					},
					{
						"detail": {
							"code": {
								"coding": [
									{
										"system": "http://hl7.eu/fhir/ig/pcsp/CodeSystem/cs-recommendation-eu-pcsp",
										"code": "7"
									}
								]
							},
							"reasonCode": [
								{
									"coding": [
										{
											"system": "http://hl7.eu/fhir/ig/pcsp/CodeSystem/cs-riskcondition-eu-pcsp",
											"code": "7"
										}
									]
								}
							],
							"status": "cancelled"
						}
					},
					{
						"detail": {
							"code": {
								"coding": [
									{
										"system": "http://hl7.eu/fhir/ig/pcsp/CodeSystem/cs-recommendation-eu-pcsp",
										"code": "8"
									}
								]
							},
							"reasonCode": [
								{
									"coding": [
										{
											"system": "http://hl7.eu/fhir/ig/pcsp/CodeSystem/cs-riskcondition-eu-pcsp",
											"code": "8"
										}
									]
								}
							],
							"status": "cancelled"
						}
					},
					{
						"detail": {
							"code": {
								"coding": [
									{
										"system": "http://hl7.eu/fhir/ig/pcsp/CodeSystem/cs-recommendation-eu-pcsp",
										"code": "9"
									}
								]
							},
							"reasonCode": [
								{
									"coding": [
										{
											"system": "http://hl7.eu/fhir/ig/pcsp/CodeSystem/cs-riskcondition-eu-pcsp",
											"code": "9"
										}
									]
								}
							],
							"status": "cancelled"
						}
					},
					{
						"detail": {
							"code": {
								"coding": [
									{
										"system": "http://hl7.eu/fhir/ig/pcsp/CodeSystem/cs-recommendation-eu-pcsp",
										"code": "10"
									}
								]
							},
							"reasonCode": [
								{
									"coding": [
										{
											"system": "http://hl7.eu/fhir/ig/pcsp/CodeSystem/cs-riskcondition-eu-pcsp",
											"code": "10"
										}
									]
								}
							],
							"status": "cancelled"
						}
					},
					{
						"detail": {
							"code": {
								"coding": [
									{
										"system": "http://hl7.eu/fhir/ig/pcsp/CodeSystem/cs-recommendation-eu-pcsp",
										"code": "11"
									}
								]
							},
							"reasonCode": [
								{
									"coding": [
										{
											"system": "http://hl7.eu/fhir/ig/pcsp/CodeSystem/cs-riskcondition-eu-pcsp",
											"code": "11"
										}
									]
								}
							],
							"reasonReference": [
								{
									"reference": "Observation/37335"
								},
								{
									"reference": "Observation/37369"
								}
							],
							"status": "not-started"
						}
					},
					{
						"detail": {
							"code": {
								"coding": [
									{
										"system": "http://hl7.eu/fhir/ig/pcsp/CodeSystem/cs-recommendation-eu-pcsp",
										"code": "12"
									}
								]
							},
							"reasonCode": [
								{
									"coding": [
										{
											"system": "http://hl7.eu/fhir/ig/pcsp/CodeSystem/cs-riskcondition-eu-pcsp",
											"code": "12"
										}
									]
								}
							],
							"status": "cancelled"
						}
					},
					{
						"detail": {
							"code": {
								"coding": [
									{
										"system": "http://hl7.eu/fhir/ig/pcsp/CodeSystem/cs-recommendation-eu-pcsp",
										"code": "13"
									}
								]
							},
							"reasonCode": [
								{
									"coding": [
										{
											"system": "http://hl7.eu/fhir/ig/pcsp/CodeSystem/cs-riskcondition-eu-pcsp",
											"code": "13"
										}
									]
								}
							],
							"reasonReference": [
								{
									"reference": "Observation/37336"
								}
							],
							"status": "not-started"
						}
					},
					{
						"detail": {
							"code": {
								"coding": [
									{
										"system": "http://hl7.eu/fhir/ig/pcsp/CodeSystem/cs-recommendation-eu-pcsp",
										"code": "14"
									}
								]
							},
							"reasonCode": [
								{
									"coding": [
										{
											"system": "http://hl7.eu/fhir/ig/pcsp/CodeSystem/cs-riskcondition-eu-pcsp",
											"code": "14"
										}
									]
								}
							],
							"reasonReference": [
								{
									"reference": "Observation/37337"
								}
							],
							"status": "not-started"
						}
					},
					{
						"detail": {
							"code": {
								"coding": [
									{
										"system": "http://hl7.eu/fhir/ig/pcsp/CodeSystem/cs-recommendation-eu-pcsp",
										"code": "15"
									}
								]
							},
							"reasonCode": [
								{
									"coding": [
										{
											"system": "http://hl7.eu/fhir/ig/pcsp/CodeSystem/cs-riskcondition-eu-pcsp",
											"code": "15"
										}
									]
								}
							],
							"reasonReference": [
								{
									"reference": "Observation/37338"
								}
							],
							"status": "not-started"
						}
					},
					{
						"detail": {
							"code": {
								"coding": [
									{
										"system": "http://hl7.eu/fhir/ig/pcsp/CodeSystem/cs-recommendation-eu-pcsp",
										"code": "16"
									}
								]
							},
							"reasonCode": [
								{
									"coding": [
										{
											"system": "http://hl7.eu/fhir/ig/pcsp/CodeSystem/cs-riskcondition-eu-pcsp",
											"code": "16"
										}
									]
								}
							],
							"reasonReference": [
								{
									"reference": "Observation/37339"
								}
							],
							"status": "not-started"
						}
					},
					{
						"detail": {
							"code": {
								"coding": [
									{
										"system": "http://hl7.eu/fhir/ig/pcsp/CodeSystem/cs-recommendation-eu-pcsp",
										"code": "17"
									}
								]
							},
							"reasonCode": [
								{
									"coding": [
										{
											"system": "http://hl7.eu/fhir/ig/pcsp/CodeSystem/cs-riskcondition-eu-pcsp",
											"code": "17"
										}
									]
								}
							],
							"status": "cancelled"
						}
					},
					{
						"detail": {
							"code": {
								"coding": [
									{
										"system": "http://hl7.eu/fhir/ig/pcsp/CodeSystem/cs-recommendation-eu-pcsp",
										"code": "18"
									}
								]
							},
							"reasonCode": [
								{
									"coding": [
										{
											"system": "http://hl7.eu/fhir/ig/pcsp/CodeSystem/cs-riskcondition-eu-pcsp",
											"code": "18"
										}
									]
								}
							],
							"status": "cancelled"
						}
					},
					{
						"detail": {
							"code": {
								"coding": [
									{
										"system": "http://hl7.eu/fhir/ig/pcsp/CodeSystem/cs-recommendation-eu-pcsp",
										"code": "19"
									}
								]
							},
							"reasonCode": [
								{
									"coding": [
										{
											"system": "http://hl7.eu/fhir/ig/pcsp/CodeSystem/cs-riskcondition-eu-pcsp",
											"code": "19"
										}
									]
								}
							],
							"reasonReference": [
								{
									"reference": "Observation/37370"
								}
							],
							"status": "not-started"
						}
					},
					{
						"detail": {
							"code": {
								"coding": [
									{
										"system": "http://hl7.eu/fhir/ig/pcsp/CodeSystem/cs-recommendation-eu-pcsp",
										"code": "20"
									}
								]
							},
							"reasonCode": [
								{
									"coding": [
										{
											"system": "http://hl7.eu/fhir/ig/pcsp/CodeSystem/cs-riskcondition-eu-pcsp",
											"code": "20"
										}
									]
								}
							],
							"reasonReference": [
								{
									"reference": "Observation/37371"
								}
							],
							"status": "cancelled"
						}
					},
					{
						"detail": {
							"code": {
								"coding": [
									{
										"system": "http://hl7.eu/fhir/ig/pcsp/CodeSystem/cs-recommendation-eu-pcsp",
										"code": "21"
									}
								]
							},
							"reasonCode": [
								{
									"coding": [
										{
											"system": "http://hl7.eu/fhir/ig/pcsp/CodeSystem/cs-riskcondition-eu-pcsp",
											"code": "21"
										}
									]
								}
							],
							"reasonReference": [
								{
									"reference": "Observation/37372"
								},
								{
									"reference": "Observation/37373"
								},
								{
									"reference": "Observation/37340"
								}
							],
							"status": "cancelled"
						}
					},
					{
						"detail": {
							"code": {
								"coding": [
									{
										"system": "http://hl7.eu/fhir/ig/pcsp/CodeSystem/cs-recommendation-eu-pcsp",
										"code": "22"
									}
								]
							},
							"reasonCode": [
								{
									"coding": [
										{
											"system": "http://hl7.eu/fhir/ig/pcsp/CodeSystem/cs-riskcondition-eu-pcsp",
											"code": "22"
										}
									]
								}
							],
							"status": "cancelled"
						}
					},
					{
						"detail": {
							"code": {
								"coding": [
									{
										"system": "http://hl7.eu/fhir/ig/pcsp/CodeSystem/cs-recommendation-eu-pcsp",
										"code": "23"
									}
								]
							},
							"reasonCode": [
								{
									"coding": [
										{
											"system": "http://hl7.eu/fhir/ig/pcsp/CodeSystem/cs-riskcondition-eu-pcsp",
											"code": "23"
										}
									]
								}
							],
							"status": "cancelled"
						}
					},
					{
						"detail": {
							"code": {
								"coding": [
									{
										"system": "http://hl7.eu/fhir/ig/pcsp/CodeSystem/cs-recommendation-eu-pcsp",
										"code": "24"
									}
								]
							},
							"reasonCode": [
								{
									"coding": [
										{
											"system": "http://hl7.eu/fhir/ig/pcsp/CodeSystem/cs-riskcondition-eu-pcsp",
											"code": "24"
										}
									]
								}
							],
							"status": "cancelled"
						}
					},
					{
						"detail": {
							"code": {
								"coding": [
									{
										"system": "http://hl7.eu/fhir/ig/pcsp/CodeSystem/cs-recommendation-eu-pcsp",
										"code": "25"
									}
								]
							},
							"reasonCode": [
								{
									"coding": [
										{
											"system": "http://hl7.eu/fhir/ig/pcsp/CodeSystem/cs-riskcondition-eu-pcsp",
											"code": "25"
										}
									]
								}
							],
							"reasonReference": [
								{
									"reference": "Observation/37374"
								}
							],
							"status": "cancelled"
						}
					},
					{
						"detail": {
							"code": {
								"coding": [
									{
										"system": "http://hl7.eu/fhir/ig/pcsp/CodeSystem/cs-recommendation-eu-pcsp",
										"code": "26"
									}
								]
							},
							"reasonCode": [
								{
									"coding": [
										{
											"system": "http://hl7.eu/fhir/ig/pcsp/CodeSystem/cs-riskcondition-eu-pcsp",
											"code": "26"
										}
									]
								}
							],
							"status": "cancelled"
						}
					},
					{
						"detail": {
							"code": {
								"coding": [
									{
										"system": "http://hl7.eu/fhir/ig/pcsp/CodeSystem/cs-recommendation-eu-pcsp",
										"code": "27"
									}
								]
							},
							"reasonCode": [
								{
									"coding": [
										{
											"system": "http://hl7.eu/fhir/ig/pcsp/CodeSystem/cs-riskcondition-eu-pcsp",
											"code": "27"
										}
									]
								}
							],
							"status": "cancelled"
						}
					},
					{
						"detail": {
							"code": {
								"coding": [
									{
										"system": "http://hl7.eu/fhir/ig/pcsp/CodeSystem/cs-recommendation-eu-pcsp",
										"code": "28"
									}
								]
							},
							"reasonCode": [
								{
									"coding": [
										{
											"system": "http://hl7.eu/fhir/ig/pcsp/CodeSystem/cs-riskcondition-eu-pcsp",
											"code": "28"
										}
									]
								}
							],
							"status": "cancelled"
						}
					},
					{
						"detail": {
							"code": {
								"coding": [
									{
										"system": "http://hl7.eu/fhir/ig/pcsp/CodeSystem/cs-recommendation-eu-pcsp",
										"code": "29"
									}
								]
							},
							"reasonCode": [
								{
									"coding": [
										{
											"system": "http://hl7.eu/fhir/ig/pcsp/CodeSystem/cs-riskcondition-eu-pcsp",
											"code": "29"
										}
									]
								}
							],
							"status": "cancelled"
						}
					},
					{
						"detail": {
							"code": {
								"coding": [
									{
										"system": "http://hl7.eu/fhir/ig/pcsp/CodeSystem/cs-recommendation-eu-pcsp",
										"code": "30"
									}
								]
							},
							"reasonCode": [
								{
									"coding": [
										{
											"system": "http://hl7.eu/fhir/ig/pcsp/CodeSystem/cs-riskcondition-eu-pcsp",
											"code": "30"
										}
									]
								}
							],
							"status": "cancelled"
						}
					},
					{
						"detail": {
							"code": {
								"coding": [
									{
										"system": "http://hl7.eu/fhir/ig/pcsp/CodeSystem/cs-recommendation-eu-pcsp",
										"code": "31"
									}
								]
							},
							"reasonCode": [
								{
									"coding": [
										{
											"system": "http://hl7.eu/fhir/ig/pcsp/CodeSystem/cs-riskcondition-eu-pcsp",
											"code": "31"
										}
									]
								}
							],
							"status": "cancelled"
						}
					},
					{
						"detail": {
							"code": {
								"coding": [
									{
										"system": "http://hl7.eu/fhir/ig/pcsp/CodeSystem/cs-recommendation-eu-pcsp",
										"code": "32"
									}
								]
							},
							"reasonCode": [
								{
									"coding": [
										{
											"system": "http://hl7.eu/fhir/ig/pcsp/CodeSystem/cs-riskcondition-eu-pcsp",
											"code": "32"
										}
									]
								}
							],
							"status": "cancelled"
						}
					},
					{
						"detail": {
							"code": {
								"coding": [
									{
										"system": "http://hl7.eu/fhir/ig/pcsp/CodeSystem/cs-recommendation-eu-pcsp",
										"code": "33"
									}
								]
							},
							"reasonCode": [
								{
									"coding": [
										{
											"system": "http://hl7.eu/fhir/ig/pcsp/CodeSystem/cs-riskcondition-eu-pcsp",
											"code": "33"
										}
									]
								}
							],
							"status": "cancelled"
						}
					},
					{
						"detail": {
							"code": {
								"coding": [
									{
										"system": "http://hl7.eu/fhir/ig/pcsp/CodeSystem/cs-recommendation-eu-pcsp",
										"code": "34"
									}
								]
							},
							"reasonCode": [
								{
									"coding": [
										{
											"system": "http://hl7.eu/fhir/ig/pcsp/CodeSystem/cs-riskcondition-eu-pcsp",
											"code": "34"
										}
									]
								}
							],
							"status": "cancelled"
						}
					},
					{
						"detail": {
							"code": {
								"coding": [
									{
										"system": "http://hl7.eu/fhir/ig/pcsp/CodeSystem/cs-recommendation-eu-pcsp",
										"code": "35"
									}
								]
							},
							"reasonCode": [
								{
									"coding": [
										{
											"system": "http://hl7.eu/fhir/ig/pcsp/CodeSystem/cs-riskcondition-eu-pcsp",
											"code": "35"
										}
									]
								}
							],
							"status": "cancelled"
						}
					},
					{
						"detail": {
							"code": {
								"coding": [
									{
										"system": "http://hl7.eu/fhir/ig/pcsp/CodeSystem/cs-recommendation-eu-pcsp",
										"code": "36"
									}
								]
							},
							"reasonCode": [
								{
									"coding": [
										{
											"system": "http://hl7.eu/fhir/ig/pcsp/CodeSystem/cs-riskcondition-eu-pcsp",
											"code": "36"
										}
									]
								}
							],
							"status": "cancelled"
						}
					},
					{
						"detail": {
							"code": {
								"coding": [
									{
										"system": "http://hl7.eu/fhir/ig/pcsp/CodeSystem/cs-recommendation-eu-pcsp",
										"code": "37"
									}
								]
							},
							"reasonCode": [
								{
									"coding": [
										{
											"system": "http://hl7.eu/fhir/ig/pcsp/CodeSystem/cs-riskcondition-eu-pcsp",
											"code": "37"
										}
									]
								}
							],
							"status": "cancelled"
						}
					},
					{
						"detail": {
							"code": {
								"coding": [
									{
										"system": "http://hl7.eu/fhir/ig/pcsp/CodeSystem/cs-recommendation-eu-pcsp",
										"code": "38"
									}
								]
							},
							"reasonCode": [
								{
									"coding": [
										{
											"system": "http://hl7.eu/fhir/ig/pcsp/CodeSystem/cs-riskcondition-eu-pcsp",
											"code": "38"
										}
									]
								}
							],
							"reasonReference": [
								{
									"reference": "Observation/37341"
								}
							],
							"status": "cancelled"
						}
					},
					{
						"detail": {
							"code": {
								"coding": [
									{
										"system": "http://hl7.eu/fhir/ig/pcsp/CodeSystem/cs-recommendation-eu-pcsp",
										"code": "39"
									}
								]
							},
							"reasonCode": [
								{
									"coding": [
										{
											"system": "http://hl7.eu/fhir/ig/pcsp/CodeSystem/cs-riskcondition-eu-pcsp",
											"code": "39"
										}
									]
								}
							],
							"status": "cancelled"
						}
					},
					{
						"detail": {
							"code": {
								"coding": [
									{
										"system": "http://hl7.eu/fhir/ig/pcsp/CodeSystem/cs-recommendation-eu-pcsp",
										"code": "40"
									}
								]
							},
							"reasonCode": [
								{
									"coding": [
										{
											"system": "http://hl7.eu/fhir/ig/pcsp/CodeSystem/cs-riskcondition-eu-pcsp",
											"code": "40"
										}
									]
								}
							],
							"status": "cancelled"
						}
					},
					{
						"detail": {
							"code": {
								"coding": [
									{
										"system": "http://hl7.eu/fhir/ig/pcsp/CodeSystem/cs-recommendation-eu-pcsp",
										"code": "41"
									}
								]
							},
							"reasonCode": [
								{
									"coding": [
										{
											"system": "http://hl7.eu/fhir/ig/pcsp/CodeSystem/cs-riskcondition-eu-pcsp",
											"code": "41"
										}
									]
								}
							],
							"status": "cancelled"
						}
					},
					{
						"detail": {
							"code": {
								"coding": [
									{
										"system": "http://hl7.eu/fhir/ig/pcsp/CodeSystem/cs-recommendation-eu-pcsp",
										"code": "42"
									}
								]
							},
							"reasonCode": [
								{
									"coding": [
										{
											"system": "http://hl7.eu/fhir/ig/pcsp/CodeSystem/cs-riskcondition-eu-pcsp",
											"code": "42"
										}
									]
								}
							],
							"status": "cancelled"
						}
					},
					{
						"detail": {
							"code": {
								"coding": [
									{
										"system": "http://hl7.eu/fhir/ig/pcsp/CodeSystem/cs-recommendation-eu-pcsp",
										"code": "43"
									}
								]
							},
							"reasonCode": [
								{
									"coding": [
										{
											"system": "http://hl7.eu/fhir/ig/pcsp/CodeSystem/cs-riskcondition-eu-pcsp",
											"code": "43"
										}
									]
								}
							],
							"reasonReference": [
								{
									"reference": "Observation/37375"
								}
							],
							"status": "cancelled"
						}
					},
					{
						"detail": {
							"code": {
								"coding": [
									{
										"system": "http://hl7.eu/fhir/ig/pcsp/CodeSystem/cs-recommendation-eu-pcsp",
										"code": "44"
									}
								]
							},
							"reasonCode": [
								{
									"coding": [
										{
											"system": "http://hl7.eu/fhir/ig/pcsp/CodeSystem/cs-riskcondition-eu-pcsp",
											"code": "44"
										}
									]
								}
							],
							"status": "cancelled"
						}
					},
					{
						"detail": {
							"code": {
								"coding": [
									{
										"system": "http://hl7.eu/fhir/ig/pcsp/CodeSystem/cs-recommendation-eu-pcsp",
										"code": "45"
									}
								]
							},
							"reasonCode": [
								{
									"coding": [
										{
											"system": "http://hl7.eu/fhir/ig/pcsp/CodeSystem/cs-riskcondition-eu-pcsp",
											"code": "45"
										}
									]
								}
							],
							"reasonReference": [
								{
									"reference": "Observation/37342"
								}
							],
							"status": "not-started"
						}
					},
					{
						"detail": {
							"code": {
								"coding": [
									{
										"system": "http://hl7.eu/fhir/ig/pcsp/CodeSystem/cs-recommendation-eu-pcsp",
										"code": "46"
									}
								]
							},
							"reasonCode": [
								{
									"coding": [
										{
											"system": "http://hl7.eu/fhir/ig/pcsp/CodeSystem/cs-riskcondition-eu-pcsp",
											"code": "46"
										}
									]
								}
							],
							"status": "cancelled"
						}
					},
					{
						"detail": {
							"code": {
								"coding": [
									{
										"system": "http://hl7.eu/fhir/ig/pcsp/CodeSystem/cs-recommendation-eu-pcsp",
										"code": "47"
									}
								]
							},
							"reasonCode": [
								{
									"coding": [
										{
											"system": "http://hl7.eu/fhir/ig/pcsp/CodeSystem/cs-riskcondition-eu-pcsp",
											"code": "47"
										}
									]
								}
							],
							"status": "cancelled"
						}
					}
				]
			},
			"search": {
				"mode": "match"
			}
		},
		{
			"fullUrl": "https://de-fhir.survivorshippassport.org:443/fhir/CarePlan/38952",
			"resource": {
				"resourceType": "CarePlan",
				"id": "38952",
				"meta": {
					"versionId": "2",
					"lastUpdated": "2025-02-14T09:02:39.823+01:00",
					"source": "#TCzICNVJA3px0iAN"
				},
				"subject": {
					"reference": "Patient/35964"
				},
				"created": "2025-02-14",
				"addresses": [
					{
						"reference": "Condition/35965"
					}
				],
				"activity": [
					{
						"detail": {
							"code": {
								"coding": [
									{
										"system": "http://hl7.eu/fhir/ig/pcsp/CodeSystem/cs-recommendation-eu-pcsp",
										"code": "1"
									}
								]
							},
							"reasonCode": [
								{
									"coding": [
										{
											"system": "http://hl7.eu/fhir/ig/pcsp/CodeSystem/cs-riskcondition-eu-pcsp",
											"code": "1"
										}
									]
								}
							],
							"reasonReference": [
								{
									"reference": "Observation/37955"
								}
							],
							"status": "not-started"
						}
					},
					{
						"detail": {
							"code": {
								"coding": [
									{
										"system": "http://hl7.eu/fhir/ig/pcsp/CodeSystem/cs-recommendation-eu-pcsp",
										"code": "2"
									}
								]
							},
							"reasonCode": [
								{
									"coding": [
										{
											"system": "http://hl7.eu/fhir/ig/pcsp/CodeSystem/cs-riskcondition-eu-pcsp",
											"code": "2"
										}
									]
								}
							],
							"status": "cancelled"
						}
					},
					{
						"detail": {
							"code": {
								"coding": [
									{
										"system": "http://hl7.eu/fhir/ig/pcsp/CodeSystem/cs-recommendation-eu-pcsp",
										"code": "3"
									}
								]
							},
							"reasonCode": [
								{
									"coding": [
										{
											"system": "http://hl7.eu/fhir/ig/pcsp/CodeSystem/cs-riskcondition-eu-pcsp",
											"code": "3"
										}
									]
								}
							],
							"status": "cancelled"
						}
					},
					{
						"detail": {
							"code": {
								"coding": [
									{
										"system": "http://hl7.eu/fhir/ig/pcsp/CodeSystem/cs-recommendation-eu-pcsp",
										"code": "4"
									}
								]
							},
							"reasonCode": [
								{
									"coding": [
										{
											"system": "http://hl7.eu/fhir/ig/pcsp/CodeSystem/cs-riskcondition-eu-pcsp",
											"code": "4"
										}
									]
								}
							],
							"status": "cancelled"
						}
					},
					{
						"detail": {
							"code": {
								"coding": [
									{
										"system": "http://hl7.eu/fhir/ig/pcsp/CodeSystem/cs-recommendation-eu-pcsp",
										"code": "5"
									}
								]
							},
							"reasonCode": [
								{
									"coding": [
										{
											"system": "http://hl7.eu/fhir/ig/pcsp/CodeSystem/cs-riskcondition-eu-pcsp",
											"code": "5"
										}
									]
								}
							],
							"status": "cancelled"
						}
					},
					{
						"detail": {
							"code": {
								"coding": [
									{
										"system": "http://hl7.eu/fhir/ig/pcsp/CodeSystem/cs-recommendation-eu-pcsp",
										"code": "6"
									}
								]
							},
							"reasonCode": [
								{
									"coding": [
										{
											"system": "http://hl7.eu/fhir/ig/pcsp/CodeSystem/cs-riskcondition-eu-pcsp",
											"code": "6"
										}
									]
								}
							],
							"status": "cancelled"
						}
					},
					{
						"detail": {
							"code": {
								"coding": [
									{
										"system": "http://hl7.eu/fhir/ig/pcsp/CodeSystem/cs-recommendation-eu-pcsp",
										"code": "7"
									}
								]
							},
							"reasonCode": [
								{
									"coding": [
										{
											"system": "http://hl7.eu/fhir/ig/pcsp/CodeSystem/cs-riskcondition-eu-pcsp",
											"code": "7"
										}
									]
								}
							],
							"status": "cancelled"
						}
					},
					{
						"detail": {
							"code": {
								"coding": [
									{
										"system": "http://hl7.eu/fhir/ig/pcsp/CodeSystem/cs-recommendation-eu-pcsp",
										"code": "8"
									}
								]
							},
							"reasonCode": [
								{
									"coding": [
										{
											"system": "http://hl7.eu/fhir/ig/pcsp/CodeSystem/cs-riskcondition-eu-pcsp",
											"code": "8"
										}
									]
								}
							],
							"status": "cancelled"
						}
					},
					{
						"detail": {
							"code": {
								"coding": [
									{
										"system": "http://hl7.eu/fhir/ig/pcsp/CodeSystem/cs-recommendation-eu-pcsp",
										"code": "9"
									}
								]
							},
							"reasonCode": [
								{
									"coding": [
										{
											"system": "http://hl7.eu/fhir/ig/pcsp/CodeSystem/cs-riskcondition-eu-pcsp",
											"code": "9"
										}
									]
								}
							],
							"status": "cancelled"
						}
					},
					{
						"detail": {
							"code": {
								"coding": [
									{
										"system": "http://hl7.eu/fhir/ig/pcsp/CodeSystem/cs-recommendation-eu-pcsp",
										"code": "10"
									}
								]
							},
							"reasonCode": [
								{
									"coding": [
										{
											"system": "http://hl7.eu/fhir/ig/pcsp/CodeSystem/cs-riskcondition-eu-pcsp",
											"code": "10"
										}
									]
								}
							],
							"status": "cancelled"
						}
					},
					{
						"detail": {
							"code": {
								"coding": [
									{
										"system": "http://hl7.eu/fhir/ig/pcsp/CodeSystem/cs-recommendation-eu-pcsp",
										"code": "11"
									}
								]
							},
							"reasonCode": [
								{
									"coding": [
										{
											"system": "http://hl7.eu/fhir/ig/pcsp/CodeSystem/cs-riskcondition-eu-pcsp",
											"code": "11"
										}
									]
								}
							],
							"reasonReference": [
								{
									"reference": "Observation/37956"
								},
								{
									"reference": "Observation/37957"
								}
							],
							"status": "not-started"
						}
					},
					{
						"detail": {
							"code": {
								"coding": [
									{
										"system": "http://hl7.eu/fhir/ig/pcsp/CodeSystem/cs-recommendation-eu-pcsp",
										"code": "12"
									}
								]
							},
							"reasonCode": [
								{
									"coding": [
										{
											"system": "http://hl7.eu/fhir/ig/pcsp/CodeSystem/cs-riskcondition-eu-pcsp",
											"code": "12"
										}
									]
								}
							],
							"status": "cancelled"
						}
					},
					{
						"detail": {
							"code": {
								"coding": [
									{
										"system": "http://hl7.eu/fhir/ig/pcsp/CodeSystem/cs-recommendation-eu-pcsp",
										"code": "13"
									}
								]
							},
							"reasonCode": [
								{
									"coding": [
										{
											"system": "http://hl7.eu/fhir/ig/pcsp/CodeSystem/cs-riskcondition-eu-pcsp",
											"code": "13"
										}
									]
								}
							],
							"reasonReference": [
								{
									"reference": "Observation/38953"
								}
							],
							"status": "not-started"
						}
					},
					{
						"detail": {
							"code": {
								"coding": [
									{
										"system": "http://hl7.eu/fhir/ig/pcsp/CodeSystem/cs-recommendation-eu-pcsp",
										"code": "14"
									}
								]
							},
							"reasonCode": [
								{
									"coding": [
										{
											"system": "http://hl7.eu/fhir/ig/pcsp/CodeSystem/cs-riskcondition-eu-pcsp",
											"code": "14"
										}
									]
								}
							],
							"reasonReference": [
								{
									"reference": "Observation/38954"
								}
							],
							"status": "not-started"
						}
					},
					{
						"detail": {
							"code": {
								"coding": [
									{
										"system": "http://hl7.eu/fhir/ig/pcsp/CodeSystem/cs-recommendation-eu-pcsp",
										"code": "15"
									}
								]
							},
							"reasonCode": [
								{
									"coding": [
										{
											"system": "http://hl7.eu/fhir/ig/pcsp/CodeSystem/cs-riskcondition-eu-pcsp",
											"code": "15"
										}
									]
								}
							],
							"reasonReference": [
								{
									"reference": "Observation/37958"
								}
							],
							"status": "not-started"
						}
					},
					{
						"detail": {
							"code": {
								"coding": [
									{
										"system": "http://hl7.eu/fhir/ig/pcsp/CodeSystem/cs-recommendation-eu-pcsp",
										"code": "16"
									}
								]
							},
							"reasonCode": [
								{
									"coding": [
										{
											"system": "http://hl7.eu/fhir/ig/pcsp/CodeSystem/cs-riskcondition-eu-pcsp",
											"code": "16"
										}
									]
								}
							],
							"reasonReference": [
								{
									"reference": "Observation/37959"
								}
							],
							"status": "not-started"
						}
					},
					{
						"detail": {
							"code": {
								"coding": [
									{
										"system": "http://hl7.eu/fhir/ig/pcsp/CodeSystem/cs-recommendation-eu-pcsp",
										"code": "17"
									}
								]
							},
							"reasonCode": [
								{
									"coding": [
										{
											"system": "http://hl7.eu/fhir/ig/pcsp/CodeSystem/cs-riskcondition-eu-pcsp",
											"code": "17"
										}
									]
								}
							],
							"status": "cancelled"
						}
					},
					{
						"detail": {
							"code": {
								"coding": [
									{
										"system": "http://hl7.eu/fhir/ig/pcsp/CodeSystem/cs-recommendation-eu-pcsp",
										"code": "18"
									}
								]
							},
							"reasonCode": [
								{
									"coding": [
										{
											"system": "http://hl7.eu/fhir/ig/pcsp/CodeSystem/cs-riskcondition-eu-pcsp",
											"code": "18"
										}
									]
								}
							],
							"status": "cancelled"
						}
					},
					{
						"detail": {
							"code": {
								"coding": [
									{
										"system": "http://hl7.eu/fhir/ig/pcsp/CodeSystem/cs-recommendation-eu-pcsp",
										"code": "19"
									}
								]
							},
							"reasonCode": [
								{
									"coding": [
										{
											"system": "http://hl7.eu/fhir/ig/pcsp/CodeSystem/cs-riskcondition-eu-pcsp",
											"code": "19"
										}
									]
								}
							],
							"reasonReference": [
								{
									"reference": "Observation/37960"
								}
							],
							"status": "not-started"
						}
					},
					{
						"detail": {
							"code": {
								"coding": [
									{
										"system": "http://hl7.eu/fhir/ig/pcsp/CodeSystem/cs-recommendation-eu-pcsp",
										"code": "20"
									}
								]
							},
							"reasonCode": [
								{
									"coding": [
										{
											"system": "http://hl7.eu/fhir/ig/pcsp/CodeSystem/cs-riskcondition-eu-pcsp",
											"code": "20"
										}
									]
								}
							],
							"reasonReference": [
								{
									"reference": "Observation/37961"
								}
							],
							"status": "cancelled"
						}
					},
					{
						"detail": {
							"code": {
								"coding": [
									{
										"system": "http://hl7.eu/fhir/ig/pcsp/CodeSystem/cs-recommendation-eu-pcsp",
										"code": "21"
									}
								]
							},
							"reasonCode": [
								{
									"coding": [
										{
											"system": "http://hl7.eu/fhir/ig/pcsp/CodeSystem/cs-riskcondition-eu-pcsp",
											"code": "21"
										}
									]
								}
							],
							"reasonReference": [
								{
									"reference": "Observation/37962"
								},
								{
									"reference": "Observation/37963"
								},
								{
									"reference": "Observation/37964"
								}
							],
							"status": "cancelled"
						}
					},
					{
						"detail": {
							"code": {
								"coding": [
									{
										"system": "http://hl7.eu/fhir/ig/pcsp/CodeSystem/cs-recommendation-eu-pcsp",
										"code": "22"
									}
								]
							},
							"reasonCode": [
								{
									"coding": [
										{
											"system": "http://hl7.eu/fhir/ig/pcsp/CodeSystem/cs-riskcondition-eu-pcsp",
											"code": "22"
										}
									]
								}
							],
							"status": "cancelled"
						}
					},
					{
						"detail": {
							"code": {
								"coding": [
									{
										"system": "http://hl7.eu/fhir/ig/pcsp/CodeSystem/cs-recommendation-eu-pcsp",
										"code": "23"
									}
								]
							},
							"reasonCode": [
								{
									"coding": [
										{
											"system": "http://hl7.eu/fhir/ig/pcsp/CodeSystem/cs-riskcondition-eu-pcsp",
											"code": "23"
										}
									]
								}
							],
							"status": "cancelled"
						}
					},
					{
						"detail": {
							"code": {
								"coding": [
									{
										"system": "http://hl7.eu/fhir/ig/pcsp/CodeSystem/cs-recommendation-eu-pcsp",
										"code": "24"
									}
								]
							},
							"reasonCode": [
								{
									"coding": [
										{
											"system": "http://hl7.eu/fhir/ig/pcsp/CodeSystem/cs-riskcondition-eu-pcsp",
											"code": "24"
										}
									]
								}
							],
							"status": "cancelled"
						}
					},
					{
						"detail": {
							"code": {
								"coding": [
									{
										"system": "http://hl7.eu/fhir/ig/pcsp/CodeSystem/cs-recommendation-eu-pcsp",
										"code": "25"
									}
								]
							},
							"reasonCode": [
								{
									"coding": [
										{
											"system": "http://hl7.eu/fhir/ig/pcsp/CodeSystem/cs-riskcondition-eu-pcsp",
											"code": "25"
										}
									]
								}
							],
							"reasonReference": [
								{
									"reference": "Observation/38955"
								}
							],
							"status": "cancelled"
						}
					},
					{
						"detail": {
							"code": {
								"coding": [
									{
										"system": "http://hl7.eu/fhir/ig/pcsp/CodeSystem/cs-recommendation-eu-pcsp",
										"code": "26"
									}
								]
							},
							"reasonCode": [
								{
									"coding": [
										{
											"system": "http://hl7.eu/fhir/ig/pcsp/CodeSystem/cs-riskcondition-eu-pcsp",
											"code": "26"
										}
									]
								}
							],
							"status": "cancelled"
						}
					},
					{
						"detail": {
							"code": {
								"coding": [
									{
										"system": "http://hl7.eu/fhir/ig/pcsp/CodeSystem/cs-recommendation-eu-pcsp",
										"code": "27"
									}
								]
							},
							"reasonCode": [
								{
									"coding": [
										{
											"system": "http://hl7.eu/fhir/ig/pcsp/CodeSystem/cs-riskcondition-eu-pcsp",
											"code": "27"
										}
									]
								}
							],
							"status": "cancelled"
						}
					},
					{
						"detail": {
							"code": {
								"coding": [
									{
										"system": "http://hl7.eu/fhir/ig/pcsp/CodeSystem/cs-recommendation-eu-pcsp",
										"code": "28"
									}
								]
							},
							"reasonCode": [
								{
									"coding": [
										{
											"system": "http://hl7.eu/fhir/ig/pcsp/CodeSystem/cs-riskcondition-eu-pcsp",
											"code": "28"
										}
									]
								}
							],
							"status": "cancelled"
						}
					},
					{
						"detail": {
							"code": {
								"coding": [
									{
										"system": "http://hl7.eu/fhir/ig/pcsp/CodeSystem/cs-recommendation-eu-pcsp",
										"code": "29"
									}
								]
							},
							"reasonCode": [
								{
									"coding": [
										{
											"system": "http://hl7.eu/fhir/ig/pcsp/CodeSystem/cs-riskcondition-eu-pcsp",
											"code": "29"
										}
									]
								}
							],
							"status": "cancelled"
						}
					},
					{
						"detail": {
							"code": {
								"coding": [
									{
										"system": "http://hl7.eu/fhir/ig/pcsp/CodeSystem/cs-recommendation-eu-pcsp",
										"code": "30"
									}
								]
							},
							"reasonCode": [
								{
									"coding": [
										{
											"system": "http://hl7.eu/fhir/ig/pcsp/CodeSystem/cs-riskcondition-eu-pcsp",
											"code": "30"
										}
									]
								}
							],
							"status": "cancelled"
						}
					},
					{
						"detail": {
							"code": {
								"coding": [
									{
										"system": "http://hl7.eu/fhir/ig/pcsp/CodeSystem/cs-recommendation-eu-pcsp",
										"code": "31"
									}
								]
							},
							"reasonCode": [
								{
									"coding": [
										{
											"system": "http://hl7.eu/fhir/ig/pcsp/CodeSystem/cs-riskcondition-eu-pcsp",
											"code": "31"
										}
									]
								}
							],
							"status": "cancelled"
						}
					},
					{
						"detail": {
							"code": {
								"coding": [
									{
										"system": "http://hl7.eu/fhir/ig/pcsp/CodeSystem/cs-recommendation-eu-pcsp",
										"code": "32"
									}
								]
							},
							"reasonCode": [
								{
									"coding": [
										{
											"system": "http://hl7.eu/fhir/ig/pcsp/CodeSystem/cs-riskcondition-eu-pcsp",
											"code": "32"
										}
									]
								}
							],
							"status": "cancelled"
						}
					},
					{
						"detail": {
							"code": {
								"coding": [
									{
										"system": "http://hl7.eu/fhir/ig/pcsp/CodeSystem/cs-recommendation-eu-pcsp",
										"code": "33"
									}
								]
							},
							"reasonCode": [
								{
									"coding": [
										{
											"system": "http://hl7.eu/fhir/ig/pcsp/CodeSystem/cs-riskcondition-eu-pcsp",
											"code": "33"
										}
									]
								}
							],
							"status": "cancelled"
						}
					},
					{
						"detail": {
							"code": {
								"coding": [
									{
										"system": "http://hl7.eu/fhir/ig/pcsp/CodeSystem/cs-recommendation-eu-pcsp",
										"code": "34"
									}
								]
							},
							"reasonCode": [
								{
									"coding": [
										{
											"system": "http://hl7.eu/fhir/ig/pcsp/CodeSystem/cs-riskcondition-eu-pcsp",
											"code": "34"
										}
									]
								}
							],
							"status": "cancelled"
						}
					},
					{
						"detail": {
							"code": {
								"coding": [
									{
										"system": "http://hl7.eu/fhir/ig/pcsp/CodeSystem/cs-recommendation-eu-pcsp",
										"code": "35"
									}
								]
							},
							"reasonCode": [
								{
									"coding": [
										{
											"system": "http://hl7.eu/fhir/ig/pcsp/CodeSystem/cs-riskcondition-eu-pcsp",
											"code": "35"
										}
									]
								}
							],
							"status": "cancelled"
						}
					},
					{
						"detail": {
							"code": {
								"coding": [
									{
										"system": "http://hl7.eu/fhir/ig/pcsp/CodeSystem/cs-recommendation-eu-pcsp",
										"code": "36"
									}
								]
							},
							"reasonCode": [
								{
									"coding": [
										{
											"system": "http://hl7.eu/fhir/ig/pcsp/CodeSystem/cs-riskcondition-eu-pcsp",
											"code": "36"
										}
									]
								}
							],
							"status": "cancelled"
						}
					},
					{
						"detail": {
							"code": {
								"coding": [
									{
										"system": "http://hl7.eu/fhir/ig/pcsp/CodeSystem/cs-recommendation-eu-pcsp",
										"code": "37"
									}
								]
							},
							"reasonCode": [
								{
									"coding": [
										{
											"system": "http://hl7.eu/fhir/ig/pcsp/CodeSystem/cs-riskcondition-eu-pcsp",
											"code": "37"
										}
									]
								}
							],
							"status": "cancelled"
						}
					},
					{
						"detail": {
							"code": {
								"coding": [
									{
										"system": "http://hl7.eu/fhir/ig/pcsp/CodeSystem/cs-recommendation-eu-pcsp",
										"code": "38"
									}
								]
							},
							"reasonCode": [
								{
									"coding": [
										{
											"system": "http://hl7.eu/fhir/ig/pcsp/CodeSystem/cs-riskcondition-eu-pcsp",
											"code": "38"
										}
									]
								}
							],
							"reasonReference": [
								{
									"reference": "Observation/37965"
								}
							],
							"status": "cancelled"
						}
					},
					{
						"detail": {
							"code": {
								"coding": [
									{
										"system": "http://hl7.eu/fhir/ig/pcsp/CodeSystem/cs-recommendation-eu-pcsp",
										"code": "39"
									}
								]
							},
							"reasonCode": [
								{
									"coding": [
										{
											"system": "http://hl7.eu/fhir/ig/pcsp/CodeSystem/cs-riskcondition-eu-pcsp",
											"code": "39"
										}
									]
								}
							],
							"status": "cancelled"
						}
					},
					{
						"detail": {
							"code": {
								"coding": [
									{
										"system": "http://hl7.eu/fhir/ig/pcsp/CodeSystem/cs-recommendation-eu-pcsp",
										"code": "40"
									}
								]
							},
							"reasonCode": [
								{
									"coding": [
										{
											"system": "http://hl7.eu/fhir/ig/pcsp/CodeSystem/cs-riskcondition-eu-pcsp",
											"code": "40"
										}
									]
								}
							],
							"status": "cancelled"
						}
					},
					{
						"detail": {
							"code": {
								"coding": [
									{
										"system": "http://hl7.eu/fhir/ig/pcsp/CodeSystem/cs-recommendation-eu-pcsp",
										"code": "41"
									}
								]
							},
							"reasonCode": [
								{
									"coding": [
										{
											"system": "http://hl7.eu/fhir/ig/pcsp/CodeSystem/cs-riskcondition-eu-pcsp",
											"code": "41"
										}
									]
								}
							],
							"status": "cancelled"
						}
					},
					{
						"detail": {
							"code": {
								"coding": [
									{
										"system": "http://hl7.eu/fhir/ig/pcsp/CodeSystem/cs-recommendation-eu-pcsp",
										"code": "42"
									}
								]
							},
							"reasonCode": [
								{
									"coding": [
										{
											"system": "http://hl7.eu/fhir/ig/pcsp/CodeSystem/cs-riskcondition-eu-pcsp",
											"code": "42"
										}
									]
								}
							],
							"status": "cancelled"
						}
					},
					{
						"detail": {
							"code": {
								"coding": [
									{
										"system": "http://hl7.eu/fhir/ig/pcsp/CodeSystem/cs-recommendation-eu-pcsp",
										"code": "43"
									}
								]
							},
							"reasonCode": [
								{
									"coding": [
										{
											"system": "http://hl7.eu/fhir/ig/pcsp/CodeSystem/cs-riskcondition-eu-pcsp",
											"code": "43"
										}
									]
								}
							],
							"reasonReference": [
								{
									"reference": "Observation/38956"
								}
							],
							"status": "cancelled"
						}
					},
					{
						"detail": {
							"code": {
								"coding": [
									{
										"system": "http://hl7.eu/fhir/ig/pcsp/CodeSystem/cs-recommendation-eu-pcsp",
										"code": "44"
									}
								]
							},
							"reasonCode": [
								{
									"coding": [
										{
											"system": "http://hl7.eu/fhir/ig/pcsp/CodeSystem/cs-riskcondition-eu-pcsp",
											"code": "44"
										}
									]
								}
							],
							"status": "cancelled"
						}
					},
					{
						"detail": {
							"code": {
								"coding": [
									{
										"system": "http://hl7.eu/fhir/ig/pcsp/CodeSystem/cs-recommendation-eu-pcsp",
										"code": "45"
									}
								]
							},
							"reasonCode": [
								{
									"coding": [
										{
											"system": "http://hl7.eu/fhir/ig/pcsp/CodeSystem/cs-riskcondition-eu-pcsp",
											"code": "45"
										}
									]
								}
							],
							"reasonReference": [
								{
									"reference": "Observation/38957"
								}
							],
							"status": "not-started"
						}
					},
					{
						"detail": {
							"code": {
								"coding": [
									{
										"system": "http://hl7.eu/fhir/ig/pcsp/CodeSystem/cs-recommendation-eu-pcsp",
										"code": "46"
									}
								]
							},
							"reasonCode": [
								{
									"coding": [
										{
											"system": "http://hl7.eu/fhir/ig/pcsp/CodeSystem/cs-riskcondition-eu-pcsp",
											"code": "46"
										}
									]
								}
							],
							"status": "cancelled"
						}
					},
					{
						"detail": {
							"code": {
								"coding": [
									{
										"system": "http://hl7.eu/fhir/ig/pcsp/CodeSystem/cs-recommendation-eu-pcsp",
										"code": "47"
									}
								]
							},
							"reasonCode": [
								{
									"coding": [
										{
											"system": "http://hl7.eu/fhir/ig/pcsp/CodeSystem/cs-riskcondition-eu-pcsp",
											"code": "47"
										}
									]
								}
							],
							"status": "cancelled"
						}
					}
				]
			},
			"search": {
				"mode": "match"
			}
		},
		{
			"fullUrl": "https://de-fhir.survivorshippassport.org:443/fhir/Encounter/37952",
			"resource": {
				"resourceType": "Encounter",
				"id": "37952",
				"meta": {
					"versionId": "2",
					"lastUpdated": "2025-01-22T09:59:06.330+01:00",
					"source": "#MdHq7iSu2qopl8AS"
				},
				"period": {
					"start": "2014-01-07"
				},
				"serviceProvider": {
					"reference": "Organization/37953"
				}
			},
			"search": {
				"mode": "match"
			}
		},
		{
			"fullUrl": "https://de-fhir.survivorshippassport.org:443/fhir/Organization/37953",
			"resource": {
				"resourceType": "Organization",
				"id": "37953",
				"meta": {
					"versionId": "1",
					"lastUpdated": "2025-01-22T09:59:04.697+01:00",
					"source": "#5ah6w80fZlcWjVOh"
				},
				"name": "UKSH LBECK"
			},
			"search": {
				"mode": "match"
			}
		},
		{
			"fullUrl": "https://de-fhir.survivorshippassport.org:443/fhir/Location/37366",
			"resource": {
				"resourceType": "Location",
				"id": "37366",
				"meta": {
					"versionId": "1",
					"lastUpdated": "2024-09-30T23:25:48.569+02:00",
					"source": "#mFN5zjnFOVNTNrHW"
				},
				"name": "UKSH LBECK"
			},
			"search": {
				"mode": "match"
			}
		}
	]
}