{
	"resourceType": "Bundle",
	"id": "2d31d137-c5b5-46a1-ba98-2d22e656f685",
	"meta": {
		"lastUpdated": "2025-07-14T11:33:29.391+02:00"
	},
	"type": "searchset",
	"total": 44,
	"link": [
		{
			"relation": "self",
			"url": "https://it-fhir.survivorshippassport.org:443/fhir/Patient/140994/$everything?_count=1000"
		}
	],
	"entry": [
		{
			"fullUrl": "https://it-fhir.survivorshippassport.org:443/fhir/Patient/140994",
			"resource": {
				"resourceType": "Patient",
				"id": "140994",
				"meta": {
					"versionId": "1",
					"lastUpdated": "2024-07-22T09:17:49.257+02:00",
					"source": "#pTIcKYcXZJrsvoyl"
				},
				"text": {
					"status": "generated"
				},
				"extension": [
					{
						"url": "http://hl7.org/fhir/StructureDefinition/patient-birthPlace",
						"valueAddress": {
							"city": "CITY"
						}
					}
				],
				"name": [
					{
						"family": "Luigi",
						"given": [
							"Italia"
						]
					},
					{
						"use": "old",
						"family": "Italia"
					}
				],
				"gender": "female",
				"birthDate": "2014-10-10",
				"contact": [
					{
						"relationship": [
							{
								"coding": [
									{
										"system": "http://terminology.hl7.org/CodeSystem/v3-RoleCode",
										"code": "PRN"
									}
								]
							}
						],
						"telecom": [
							{
								"system": "email",
								"value": "test@test.it"
							},
							{
								"system": "phone",
								"value": "3931234567"
							}
						]
					}
				]
			},
			"search": {
				"mode": "match"
			}
		},
		{
			"fullUrl": "https://it-fhir.survivorshippassport.org:443/fhir/Observation/141959",
			"resource": {
				"resourceType": "Observation",
				"id": "141959",
				"meta": {
					"versionId": "1",
					"lastUpdated": "2024-07-22T09:29:56.686+02:00",
					"source": "#KB0KeBiiN3dkGUXb"
				},
				"subject": {
					"reference": "Patient/140994"
				},
				"valueQuantity": {
					"value": 3000,
					"code": "mg/m2"
				},
				"method": {
					"coding": [
						{
							"system": "http://snomed.info/sct",
							"code": "703858009"
						}
					]
				}
			},
			"search": {
				"mode": "match"
			}
		},
		{
			"fullUrl": "https://it-fhir.survivorshippassport.org:443/fhir/Observation/141960",
			"resource": {
				"resourceType": "Observation",
				"id": "141960",
				"meta": {
					"versionId": "1",
					"lastUpdated": "2024-07-22T09:29:59.778+02:00",
					"source": "#jb9Arux3UMK14BdJ"
				},
				"subject": {
					"reference": "Patient/140994"
				},
				"method": {
					"coding": [
						{
							"system": "http://terminology.hl7.org/CodeSystem/data-absent-reason",
							"code": "unknown"
						}
					]
				}
			},
			"search": {
				"mode": "match"
			}
		},
		{
			"fullUrl": "https://it-fhir.survivorshippassport.org:443/fhir/Condition/140995",
			"resource": {
				"resourceType": "Condition",
				"id": "140995",
				"meta": {
					"versionId": "6",
					"lastUpdated": "2025-06-30T10:35:02.622+02:00",
					"source": "#lqArqYmuqdqLoYOx"
				},
				"extension": [
					{
						"url": "http://hl7.eu/fhir/ig/pcsp/StructureDefinition/condition-previousStatus",
						"valueCodeableConcept": {
							"coding": [
								{
									"system": "http://terminology.hl7.org/CodeSystem/condition-clinical",
									"code": "inactive"
								}
							]
						}
					},
					{
						"url": "http://hl7.org/fhir/StructureDefinition/condition-assertedDate",
						"valueDateTime": "2017-10-09"
					},
					{
						"url": "http://hl7.org/fhir/us/mcode/StructureDefinition/mcode-histology-morphology-behavior",
						"valueCodeableConcept": {
							"coding": [
								{
									"system": "http://terminology.hl7.org/CodeSystem/icd-o-3",
									"code": "9835/3"
								}
							]
						}
					}
				],
				"bodySite": [
					{
						"extension": [
							{
								"url": "http://hl7.eu/fhir/ig/pcsp/StructureDefinition/mcode-laterality-qualifier",
								"valueCodeableConcept": {
									"coding": [
										{
											"system": "http://terminology.hl7.org/CodeSystem/data-absent-reason",
											"code": "not-applicable"
										}
									]
								}
							}
						],
						"coding": [
							{
								"system": "http://terminology.hl7.org/CodeSystem/icd-o-3",
								"code": "C42.1"
							}
						]
					}
				],
				"subject": {
					"reference": "Patient/140994"
				},
				"encounter": {
					"reference": "Encounter/170304"
				},
				"stage": [
					{
						"summary": {
							"text": "SR"
						}
					}
				]
			},
			"search": {
				"mode": "match"
			}
		},
		{
			"fullUrl": "https://it-fhir.survivorshippassport.org:443/fhir/DocumentReference/142965",
			"resource": {
				"resourceType": "DocumentReference",
				"id": "142965",
				"meta": {
					"versionId": "1",
					"lastUpdated": "2024-07-23T11:45:43.872+02:00",
					"source": "#xLuBomhORQ3AM3Yf"
				},
				"type": {
					"coding": [
						{
							"system": "http://hl7.eu/fhir/ig/pcsp/CodeSystem/cs-generic-eu-pcsp",
							"code": "surpass"
						}
					]
				},
				"subject": {
					"reference": "Patient/140994"
				},
				"content": [
					{
						"attachment": {
							"language": "it",
							"data": "",
							"title": "passport-105_1.it.pdf.enc"
						}
					},
					{
						"attachment": {
							"language": "es",
							"data": "",
							"title": "passport-105_1.es.pdf.enc"
						}
					},
					{
						"attachment": {
							"language": "lt",
							"data": "",
							"title": "passport-105_1.lt.pdf.enc"
						}
					},
					{
						"attachment": {
							"language": "de",
							"data": "",
							"title": "passport-105_1.de.pdf.enc"
						}
					},
					{
						"attachment": {
							"language": "be",
							"data": "",
							"title": "passport-105_1.be.pdf.enc"
						}
					},
					{
						"attachment": {
							"language": "en",
							"data": "",
							"title": "passport-105_1.en.pdf.enc"
						}
					}
				],
				"context": {
					"related": [
						{
							"reference": "Condition/140995"
						}
					]
				}
			},
			"search": {
				"mode": "match"
			}
		},
		{
			"fullUrl": "https://it-fhir.survivorshippassport.org:443/fhir/Composition/142976",
			"resource": {
				"resourceType": "Composition",
				"id": "142976",
				"meta": {
					"versionId": "1",
					"lastUpdated": "2024-07-23T11:46:06.051+02:00",
					"source": "#hoIuHBb0ghG9ug7G"
				},
				"type": {
					"coding": [
						{
							"system": "http://hl7.eu/fhir/ig/pcsp/CodeSystem/cs-generic-eu-pcsp",
							"code": "surpass"
						}
					]
				},
				"subject": {
					"reference": "Patient/140994"
				},
				"date": "2024-07-23",
				"title": "Childhood Cancer Survivor Passport",
				"section": [
					{
						"title": "Care Plan",
						"code": {
							"coding": [
								{
									"system": "http://loinc.org",
									"code": "18776-5"
								}
							]
						},
						"entry": [
							{
								"reference": "CarePlan/141961"
							},
							{
								"reference": "DocumentReference/142965"
							}
						]
					},
					{
						"title": "Diagnosis",
						"code": {
							"coding": [
								{
									"system": "http://loinc.org",
									"code": "72135-7"
								}
							]
						},
						"entry": [
							{
								"reference": "Condition/140995"
							},
							{
								"reference": "Procedure/140998"
							}
						],
						"section": [
							{
								"title": "Chemotherapy",
								"code": {
									"coding": [
										{
											"system": "http://loinc.org",
											"code": "11486-8"
										}
									]
								},
								"entry": [
									{
										"reference": "MedicationAdministration/141955"
									},
									{
										"reference": "MedicationAdministration/140999"
									},
									{
										"reference": "MedicationAdministration/141956"
									},
									{
										"reference": "MedicationAdministration/141000"
									},
									{
										"reference": "MedicationAdministration/141001"
									},
									{
										"reference": "MedicationAdministration/142952"
									},
									{
										"reference": "MedicationAdministration/142953"
									},
									{
										"reference": "MedicationAdministration/141957"
									},
									{
										"reference": "MedicationAdministration/141958"
									},
									{
										"reference": "MedicationStatement/142955"
									}
								]
							},
							{
								"title": "Other relevant clinical information and events",
								"code": {
									"coding": [
										{
											"system": "http://hl7.eu/fhir/ig/pcsp/CodeSystem/cs-generic-eu-pcsp",
											"code": "section-otherInfos"
										}
									]
								},
								"entry": [
									{
										"reference": "Condition/142964"
									},
									{
										"reference": "Procedure/142963"
									}
								]
							}
						]
					}
				]
			},
			"search": {
				"mode": "match"
			}
		},
		{
			"fullUrl": "https://it-fhir.survivorshippassport.org:443/fhir/Procedure/140998",
			"resource": {
				"resourceType": "Procedure",
				"id": "140998",
				"meta": {
					"versionId": "4",
					"lastUpdated": "2025-01-28T11:58:58.826+01:00",
					"source": "#MhiWtshdIlr2E2DO"
				},
				"instantiatesCanonical": [
					"https://it-fhir.survivorshippassport.org/fhir/PlanDefinition/155063"
				],
				"category": {
					"coding": [
						{
							"system": "http://snomed.info/sct",
							"code": "708255002"
						}
					]
				},
				"subject": {
					"reference": "Patient/140994"
				},
				"performedPeriod": {
					"end": "2019-10-09"
				},
				"reasonReference": [
					{
						"reference": "Condition/140995"
					}
				],
				"outcome": {
					"coding": [
						{
							"system": "http://terminology.hl7.org/CodeSystem/condition-clinical",
							"code": "inactive"
						}
					]
				}
			},
			"search": {
				"mode": "match"
			}
		},
		{
			"fullUrl": "https://it-fhir.survivorshippassport.org:443/fhir/Observation/142956",
			"resource": {
				"resourceType": "Observation",
				"id": "142956",
				"meta": {
					"versionId": "1",
					"lastUpdated": "2024-07-22T09:29:54.797+02:00",
					"source": "#tN807RoZTWBym9VU"
				},
				"subject": {
					"reference": "Patient/140994"
				},
				"valueQuantity": {
					"value": 12,
					"code": "mg/m2"
				},
				"method": {
					"coding": [
						{
							"system": "http://snomed.info/sct",
							"code": "703858009"
						}
					]
				}
			},
			"search": {
				"mode": "match"
			}
		},
		{
			"fullUrl": "https://it-fhir.survivorshippassport.org:443/fhir/Observation/142957",
			"resource": {
				"resourceType": "Observation",
				"id": "142957",
				"meta": {
					"versionId": "1",
					"lastUpdated": "2024-07-22T09:29:55.472+02:00",
					"source": "#iZOqm677LiYEtBL0"
				},
				"subject": {
					"reference": "Patient/140994"
				},
				"valueQuantity": {
					"value": 120,
					"code": "mg/m2"
				},
				"method": {
					"coding": [
						{
							"system": "http://snomed.info/sct",
							"code": "703858009"
						}
					]
				}
			},
			"search": {
				"mode": "match"
			}
		},
		{
			"fullUrl": "https://it-fhir.survivorshippassport.org:443/fhir/Observation/142958",
			"resource": {
				"resourceType": "Observation",
				"id": "142958",
				"meta": {
					"versionId": "1",
					"lastUpdated": "2024-07-22T09:29:56.086+02:00",
					"source": "#hn8QFsd6cgZX4GBy"
				},
				"subject": {
					"reference": "Patient/140994"
				},
				"valueQuantity": {
					"value": 7500,
					"code": "[iU]/m2"
				},
				"method": {
					"coding": [
						{
							"system": "http://snomed.info/sct",
							"code": "703858009"
						}
					]
				}
			},
			"search": {
				"mode": "match"
			}
		},
		{
			"fullUrl": "https://it-fhir.survivorshippassport.org:443/fhir/Observation/142959",
			"resource": {
				"resourceType": "Observation",
				"id": "142959",
				"meta": {
					"versionId": "1",
					"lastUpdated": "2024-07-22T09:29:57.279+02:00",
					"source": "#2fzyBmy3g9UZt85B"
				},
				"subject": {
					"reference": "Patient/140994"
				},
				"valueQuantity": {
					"value": 1800,
					"code": "mg/m2"
				},
				"method": {
					"coding": [
						{
							"system": "http://snomed.info/sct",
							"code": "703858009"
						}
					]
				}
			},
			"search": {
				"mode": "match"
			}
		},
		{
			"fullUrl": "https://it-fhir.survivorshippassport.org:443/fhir/Observation/142960",
			"resource": {
				"resourceType": "Observation",
				"id": "142960",
				"meta": {
					"versionId": "1",
					"lastUpdated": "2024-07-22T09:29:57.895+02:00",
					"source": "#Gsrk7MnHsK4cWoAC"
				},
				"subject": {
					"reference": "Patient/140994"
				},
				"valueQuantity": {
					"value": 21180,
					"code": "mg/m2"
				},
				"method": {
					"coding": [
						{
							"system": "http://snomed.info/sct",
							"code": "703858009"
						}
					]
				}
			},
			"search": {
				"mode": "match"
			}
		},
		{
			"fullUrl": "https://it-fhir.survivorshippassport.org:443/fhir/Observation/142961",
			"resource": {
				"resourceType": "Observation",
				"id": "142961",
				"meta": {
					"versionId": "1",
					"lastUpdated": "2024-07-22T09:29:58.555+02:00",
					"source": "#YJdgFmIBFidGvDob"
				},
				"subject": {
					"reference": "Patient/140994"
				},
				"valueQuantity": {
					"value": 120,
					"code": "mg/m2"
				},
				"method": {
					"coding": [
						{
							"system": "http://snomed.info/sct",
							"code": "703858009"
						}
					]
				}
			},
			"search": {
				"mode": "match"
			}
		},
		{
			"fullUrl": "https://it-fhir.survivorshippassport.org:443/fhir/Observation/142962",
			"resource": {
				"resourceType": "Observation",
				"id": "142962",
				"meta": {
					"versionId": "1",
					"lastUpdated": "2024-07-22T09:29:59.174+02:00",
					"source": "#NnZUzcRMrigui93S"
				},
				"subject": {
					"reference": "Patient/140994"
				},
				"method": {
					"coding": [
						{
							"system": "http://terminology.hl7.org/CodeSystem/data-absent-reason",
							"code": "unknown"
						}
					]
				}
			},
			"search": {
				"mode": "match"
			}
		},
		{
			"fullUrl": "https://it-fhir.survivorshippassport.org:443/fhir/Procedure/142963",
			"resource": {
				"resourceType": "Procedure",
				"id": "142963",
				"meta": {
					"versionId": "1",
					"lastUpdated": "2024-07-22T09:31:41.188+02:00",
					"source": "#epn304TTDPkwb5CG"
				},
				"code": {
					"coding": [
						{
							"system": "http://snomed.info/sct",
							"code": "392230005"
						}
					]
				},
				"subject": {
					"reference": "Patient/140994"
				},
				"reasonReference": [
					{
						"reference": "Condition/140995"
					}
				],
				"bodySite": [
					{
						"text": "non nota"
					}
				],
				"focalDevice": [
					{
						"action": {
							"coding": [
								{
									"system": "http://snomed.info/sct",
									"code": "129303008"
								}
							]
						}
					}
				]
			},
			"search": {
				"mode": "match"
			}
		},
		{
			"fullUrl": "https://it-fhir.survivorshippassport.org:443/fhir/Condition/142964",
			"resource": {
				"resourceType": "Condition",
				"id": "142964",
				"meta": {
					"versionId": "1",
					"lastUpdated": "2024-07-22T09:31:41.855+02:00",
					"source": "#ee85rQwAPe89ZDiQ"
				},
				"clinicalStatus": {
					"coding": [
						{
							"system": "http://terminology.hl7.org/CodeSystem/condition-clinical",
							"code": "resolved"
						}
					]
				},
				"code": {
					"coding": [
						{
							"system": "http://snomed.info/sct",
							"code": "75478009"
						}
					]
				},
				"subject": {
					"reference": "Patient/140994"
				},
				"onsetDateTime": "2018-01-24",
				"note": [
					{
						"text": " Reazione (orticaria + tosse stizosa) a trasfusione di PLT"
					}
				]
			},
			"search": {
				"mode": "match"
			}
		},
		{
			"fullUrl": "https://it-fhir.survivorshippassport.org:443/fhir/CarePlan/141961",
			"resource": {
				"resourceType": "CarePlan",
				"id": "141961",
				"meta": {
					"versionId": "2",
					"lastUpdated": "2024-07-23T11:45:54.075+02:00",
					"source": "#5ZqIRfBrAdWEmHKq"
				},
				"subject": {
					"reference": "Patient/140994"
				},
				"created": "2024-07-23",
				"addresses": [
					{
						"reference": "Condition/140995"
					}
				],
				"activity": [
					{
						"detail": {
							"code": {
								"coding": [
									{
										"system": "http://hl7.eu/fhir/ig/pcsp/CodeSystem/cs-recommendation-eu-pcsp",
										"code": "34"
									}
								]
							},
							"reasonCode": [
								{
									"coding": [
										{
											"system": "http://hl7.eu/fhir/ig/pcsp/CodeSystem/cs-riskcondition-eu-pcsp",
											"code": "34"
										}
									]
								}
							],
							"reasonReference": [
								{
									"reference": "Observation/142971"
								},
								{
									"reference": "Observation/142972"
								}
							],
							"status": "not-started",
							"scheduledString": "Prossimo controllo a discrezione del curante",
							"description": "AST/ALT nella norma, UC 2024"
						}
					},
					{
						"detail": {
							"code": {
								"coding": [
									{
										"system": "http://hl7.eu/fhir/ig/pcsp/CodeSystem/cs-recommendation-eu-pcsp",
										"code": "46"
									}
								]
							},
							"reasonCode": [
								{
									"coding": [
										{
											"system": "http://hl7.eu/fhir/ig/pcsp/CodeSystem/cs-riskcondition-eu-pcsp",
											"code": "46"
										}
									]
								}
							],
							"reasonReference": [
								{
									"reference": "Observation/142975"
								}
							],
							"status": "not-started",
							"scheduledString": "Prossimo controllo 2029",
							"description": "Ultimo controllo 2024"
						}
					},
					{
						"detail": {
							"code": {
								"coding": [
									{
										"system": "http://hl7.eu/fhir/ig/pcsp/CodeSystem/cs-recommendation-eu-pcsp",
										"code": "7"
									}
								]
							},
							"reasonCode": [
								{
									"coding": [
										{
											"system": "http://hl7.eu/fhir/ig/pcsp/CodeSystem/cs-riskcondition-eu-pcsp",
											"code": "7"
										}
									]
								}
							],
							"reasonReference": [
								{
									"reference": "Observation/141962"
								}
							],
							"status": "not-started",
							"scheduledString": "Monitoraggio semestrale peso e altezza"
						}
					},
					{
						"detail": {
							"code": {
								"coding": [
									{
										"system": "http://hl7.eu/fhir/ig/pcsp/CodeSystem/cs-recommendation-eu-pcsp",
										"code": "13"
									}
								]
							},
							"reasonCode": [
								{
									"coding": [
										{
											"system": "http://hl7.eu/fhir/ig/pcsp/CodeSystem/cs-riskcondition-eu-pcsp",
											"code": "13"
										}
									]
								}
							],
							"reasonReference": [
								{
									"reference": "Observation/142966"
								}
							],
							"status": "not-started",
							"scheduledString": "Prossimi controlli esecuzione DXA"
						}
					},
					{
						"detail": {
							"code": {
								"coding": [
									{
										"system": "http://hl7.eu/fhir/ig/pcsp/CodeSystem/cs-recommendation-eu-pcsp",
										"code": "1"
									}
								]
							},
							"reasonCode": [
								{
									"coding": [
										{
											"system": "http://hl7.eu/fhir/ig/pcsp/CodeSystem/cs-riskcondition-eu-pcsp",
											"code": "1"
										}
									]
								}
							],
							"status": "cancelled"
						}
					},
					{
						"detail": {
							"code": {
								"coding": [
									{
										"system": "http://hl7.eu/fhir/ig/pcsp/CodeSystem/cs-recommendation-eu-pcsp",
										"code": "2"
									}
								]
							},
							"reasonCode": [
								{
									"coding": [
										{
											"system": "http://hl7.eu/fhir/ig/pcsp/CodeSystem/cs-riskcondition-eu-pcsp",
											"code": "2"
										}
									]
								}
							],
							"status": "cancelled"
						}
					},
					{
						"detail": {
							"code": {
								"coding": [
									{
										"system": "http://hl7.eu/fhir/ig/pcsp/CodeSystem/cs-recommendation-eu-pcsp",
										"code": "3"
									}
								]
							},
							"reasonCode": [
								{
									"coding": [
										{
											"system": "http://hl7.eu/fhir/ig/pcsp/CodeSystem/cs-riskcondition-eu-pcsp",
											"code": "3"
										}
									]
								}
							],
							"status": "cancelled"
						}
					},
					{
						"detail": {
							"code": {
								"coding": [
									{
										"system": "http://hl7.eu/fhir/ig/pcsp/CodeSystem/cs-recommendation-eu-pcsp",
										"code": "4"
									}
								]
							},
							"reasonCode": [
								{
									"coding": [
										{
											"system": "http://hl7.eu/fhir/ig/pcsp/CodeSystem/cs-riskcondition-eu-pcsp",
											"code": "4"
										}
									]
								}
							],
							"status": "cancelled"
						}
					},
					{
						"detail": {
							"code": {
								"coding": [
									{
										"system": "http://hl7.eu/fhir/ig/pcsp/CodeSystem/cs-recommendation-eu-pcsp",
										"code": "5"
									}
								]
							},
							"reasonCode": [
								{
									"coding": [
										{
											"system": "http://hl7.eu/fhir/ig/pcsp/CodeSystem/cs-riskcondition-eu-pcsp",
											"code": "5"
										}
									]
								}
							],
							"status": "cancelled"
						}
					},
					{
						"detail": {
							"code": {
								"coding": [
									{
										"system": "http://hl7.eu/fhir/ig/pcsp/CodeSystem/cs-recommendation-eu-pcsp",
										"code": "6"
									}
								]
							},
							"reasonCode": [
								{
									"coding": [
										{
											"system": "http://hl7.eu/fhir/ig/pcsp/CodeSystem/cs-riskcondition-eu-pcsp",
											"code": "6"
										}
									]
								}
							],
							"status": "cancelled"
						}
					},
					{
						"detail": {
							"code": {
								"coding": [
									{
										"system": "http://hl7.eu/fhir/ig/pcsp/CodeSystem/cs-recommendation-eu-pcsp",
										"code": "8"
									}
								]
							},
							"reasonCode": [
								{
									"coding": [
										{
											"system": "http://hl7.eu/fhir/ig/pcsp/CodeSystem/cs-riskcondition-eu-pcsp",
											"code": "8"
										}
									]
								}
							],
							"status": "cancelled"
						}
					},
					{
						"detail": {
							"code": {
								"coding": [
									{
										"system": "http://hl7.eu/fhir/ig/pcsp/CodeSystem/cs-recommendation-eu-pcsp",
										"code": "9"
									}
								]
							},
							"reasonCode": [
								{
									"coding": [
										{
											"system": "http://hl7.eu/fhir/ig/pcsp/CodeSystem/cs-riskcondition-eu-pcsp",
											"code": "9"
										}
									]
								}
							],
							"status": "cancelled"
						}
					},
					{
						"detail": {
							"code": {
								"coding": [
									{
										"system": "http://hl7.eu/fhir/ig/pcsp/CodeSystem/cs-recommendation-eu-pcsp",
										"code": "10"
									}
								]
							},
							"reasonCode": [
								{
									"coding": [
										{
											"system": "http://hl7.eu/fhir/ig/pcsp/CodeSystem/cs-riskcondition-eu-pcsp",
											"code": "10"
										}
									]
								}
							],
							"status": "cancelled"
						}
					},
					{
						"detail": {
							"code": {
								"coding": [
									{
										"system": "http://hl7.eu/fhir/ig/pcsp/CodeSystem/cs-recommendation-eu-pcsp",
										"code": "11"
									}
								]
							},
							"reasonCode": [
								{
									"coding": [
										{
											"system": "http://hl7.eu/fhir/ig/pcsp/CodeSystem/cs-riskcondition-eu-pcsp",
											"code": "11"
										}
									]
								}
							],
							"status": "cancelled"
						}
					},
					{
						"detail": {
							"code": {
								"coding": [
									{
										"system": "http://hl7.eu/fhir/ig/pcsp/CodeSystem/cs-recommendation-eu-pcsp",
										"code": "12"
									}
								]
							},
							"reasonCode": [
								{
									"coding": [
										{
											"system": "http://hl7.eu/fhir/ig/pcsp/CodeSystem/cs-riskcondition-eu-pcsp",
											"code": "12"
										}
									]
								}
							],
							"status": "cancelled"
						}
					},
					{
						"detail": {
							"code": {
								"coding": [
									{
										"system": "http://hl7.eu/fhir/ig/pcsp/CodeSystem/cs-recommendation-eu-pcsp",
										"code": "14"
									}
								]
							},
							"reasonCode": [
								{
									"coding": [
										{
											"system": "http://hl7.eu/fhir/ig/pcsp/CodeSystem/cs-riskcondition-eu-pcsp",
											"code": "14"
										}
									]
								}
							],
							"reasonReference": [
								{
									"reference": "Observation/142967"
								}
							],
							"status": "cancelled"
						}
					},
					{
						"detail": {
							"code": {
								"coding": [
									{
										"system": "http://hl7.eu/fhir/ig/pcsp/CodeSystem/cs-recommendation-eu-pcsp",
										"code": "15"
									}
								]
							},
							"reasonCode": [
								{
									"coding": [
										{
											"system": "http://hl7.eu/fhir/ig/pcsp/CodeSystem/cs-riskcondition-eu-pcsp",
											"code": "15"
										}
									]
								}
							],
							"status": "cancelled"
						}
					},
					{
						"detail": {
							"code": {
								"coding": [
									{
										"system": "http://hl7.eu/fhir/ig/pcsp/CodeSystem/cs-recommendation-eu-pcsp",
										"code": "16"
									}
								]
							},
							"reasonCode": [
								{
									"coding": [
										{
											"system": "http://hl7.eu/fhir/ig/pcsp/CodeSystem/cs-riskcondition-eu-pcsp",
											"code": "16"
										}
									]
								}
							],
							"status": "cancelled"
						}
					},
					{
						"detail": {
							"code": {
								"coding": [
									{
										"system": "http://hl7.eu/fhir/ig/pcsp/CodeSystem/cs-recommendation-eu-pcsp",
										"code": "17"
									}
								]
							},
							"reasonCode": [
								{
									"coding": [
										{
											"system": "http://hl7.eu/fhir/ig/pcsp/CodeSystem/cs-riskcondition-eu-pcsp",
											"code": "17"
										}
									]
								}
							],
							"status": "cancelled"
						}
					},
					{
						"detail": {
							"code": {
								"coding": [
									{
										"system": "http://hl7.eu/fhir/ig/pcsp/CodeSystem/cs-recommendation-eu-pcsp",
										"code": "18"
									}
								]
							},
							"reasonCode": [
								{
									"coding": [
										{
											"system": "http://hl7.eu/fhir/ig/pcsp/CodeSystem/cs-riskcondition-eu-pcsp",
											"code": "18"
										}
									]
								}
							],
							"status": "cancelled"
						}
					},
					{
						"detail": {
							"code": {
								"coding": [
									{
										"system": "http://hl7.eu/fhir/ig/pcsp/CodeSystem/cs-recommendation-eu-pcsp",
										"code": "19"
									}
								]
							},
							"reasonCode": [
								{
									"coding": [
										{
											"system": "http://hl7.eu/fhir/ig/pcsp/CodeSystem/cs-riskcondition-eu-pcsp",
											"code": "19"
										}
									]
								}
							],
							"status": "cancelled"
						}
					},
					{
						"detail": {
							"code": {
								"coding": [
									{
										"system": "http://hl7.eu/fhir/ig/pcsp/CodeSystem/cs-recommendation-eu-pcsp",
										"code": "20"
									}
								]
							},
							"reasonCode": [
								{
									"coding": [
										{
											"system": "http://hl7.eu/fhir/ig/pcsp/CodeSystem/cs-riskcondition-eu-pcsp",
											"code": "20"
										}
									]
								}
							],
							"status": "cancelled"
						}
					},
					{
						"detail": {
							"code": {
								"coding": [
									{
										"system": "http://hl7.eu/fhir/ig/pcsp/CodeSystem/cs-recommendation-eu-pcsp",
										"code": "21"
									}
								]
							},
							"reasonCode": [
								{
									"coding": [
										{
											"system": "http://hl7.eu/fhir/ig/pcsp/CodeSystem/cs-riskcondition-eu-pcsp",
											"code": "21"
										}
									]
								}
							],
							"reasonReference": [
								{
									"reference": "Observation/141963"
								},
								{
									"reference": "Observation/142968"
								}
							],
							"status": "cancelled"
						}
					},
					{
						"detail": {
							"code": {
								"coding": [
									{
										"system": "http://hl7.eu/fhir/ig/pcsp/CodeSystem/cs-recommendation-eu-pcsp",
										"code": "22"
									}
								]
							},
							"reasonCode": [
								{
									"coding": [
										{
											"system": "http://hl7.eu/fhir/ig/pcsp/CodeSystem/cs-riskcondition-eu-pcsp",
											"code": "22"
										}
									]
								}
							],
							"reasonReference": [
								{
									"reference": "Observation/141964"
								}
							],
							"status": "cancelled"
						}
					},
					{
						"detail": {
							"code": {
								"coding": [
									{
										"system": "http://hl7.eu/fhir/ig/pcsp/CodeSystem/cs-recommendation-eu-pcsp",
										"code": "23"
									}
								]
							},
							"reasonCode": [
								{
									"coding": [
										{
											"system": "http://hl7.eu/fhir/ig/pcsp/CodeSystem/cs-riskcondition-eu-pcsp",
											"code": "23"
										}
									]
								}
							],
							"reasonReference": [
								{
									"reference": "Observation/142969"
								}
							],
							"status": "cancelled"
						}
					},
					{
						"detail": {
							"code": {
								"coding": [
									{
										"system": "http://hl7.eu/fhir/ig/pcsp/CodeSystem/cs-recommendation-eu-pcsp",
										"code": "24"
									}
								]
							},
							"reasonCode": [
								{
									"coding": [
										{
											"system": "http://hl7.eu/fhir/ig/pcsp/CodeSystem/cs-riskcondition-eu-pcsp",
											"code": "24"
										}
									]
								}
							],
							"status": "cancelled"
						}
					},
					{
						"detail": {
							"code": {
								"coding": [
									{
										"system": "http://hl7.eu/fhir/ig/pcsp/CodeSystem/cs-recommendation-eu-pcsp",
										"code": "25"
									}
								]
							},
							"reasonCode": [
								{
									"coding": [
										{
											"system": "http://hl7.eu/fhir/ig/pcsp/CodeSystem/cs-riskcondition-eu-pcsp",
											"code": "25"
										}
									]
								}
							],
							"status": "cancelled"
						}
					},
					{
						"detail": {
							"code": {
								"coding": [
									{
										"system": "http://hl7.eu/fhir/ig/pcsp/CodeSystem/cs-recommendation-eu-pcsp",
										"code": "26"
									}
								]
							},
							"reasonCode": [
								{
									"coding": [
										{
											"system": "http://hl7.eu/fhir/ig/pcsp/CodeSystem/cs-riskcondition-eu-pcsp",
											"code": "26"
										}
									]
								}
							],
							"status": "cancelled"
						}
					},
					{
						"detail": {
							"code": {
								"coding": [
									{
										"system": "http://hl7.eu/fhir/ig/pcsp/CodeSystem/cs-recommendation-eu-pcsp",
										"code": "27"
									}
								]
							},
							"reasonCode": [
								{
									"coding": [
										{
											"system": "http://hl7.eu/fhir/ig/pcsp/CodeSystem/cs-riskcondition-eu-pcsp",
											"code": "27"
										}
									]
								}
							],
							"reasonReference": [
								{
									"reference": "Observation/142970"
								}
							],
							"status": "cancelled"
						}
					},
					{
						"detail": {
							"code": {
								"coding": [
									{
										"system": "http://hl7.eu/fhir/ig/pcsp/CodeSystem/cs-recommendation-eu-pcsp",
										"code": "28"
									}
								]
							},
							"reasonCode": [
								{
									"coding": [
										{
											"system": "http://hl7.eu/fhir/ig/pcsp/CodeSystem/cs-riskcondition-eu-pcsp",
											"code": "28"
										}
									]
								}
							],
							"status": "cancelled"
						}
					},
					{
						"detail": {
							"code": {
								"coding": [
									{
										"system": "http://hl7.eu/fhir/ig/pcsp/CodeSystem/cs-recommendation-eu-pcsp",
										"code": "29"
									}
								]
							},
							"reasonCode": [
								{
									"coding": [
										{
											"system": "http://hl7.eu/fhir/ig/pcsp/CodeSystem/cs-riskcondition-eu-pcsp",
											"code": "29"
										}
									]
								}
							],
							"reasonReference": [
								{
									"reference": "Observation/141965"
								}
							],
							"status": "cancelled"
						}
					},
					{
						"detail": {
							"code": {
								"coding": [
									{
										"system": "http://hl7.eu/fhir/ig/pcsp/CodeSystem/cs-recommendation-eu-pcsp",
										"code": "30"
									}
								]
							},
							"reasonCode": [
								{
									"coding": [
										{
											"system": "http://hl7.eu/fhir/ig/pcsp/CodeSystem/cs-riskcondition-eu-pcsp",
											"code": "30"
										}
									]
								}
							],
							"status": "cancelled"
						}
					},
					{
						"detail": {
							"code": {
								"coding": [
									{
										"system": "http://hl7.eu/fhir/ig/pcsp/CodeSystem/cs-recommendation-eu-pcsp",
										"code": "31"
									}
								]
							},
							"reasonCode": [
								{
									"coding": [
										{
											"system": "http://hl7.eu/fhir/ig/pcsp/CodeSystem/cs-riskcondition-eu-pcsp",
											"code": "31"
										}
									]
								}
							],
							"status": "cancelled"
						}
					},
					{
						"detail": {
							"code": {
								"coding": [
									{
										"system": "http://hl7.eu/fhir/ig/pcsp/CodeSystem/cs-recommendation-eu-pcsp",
										"code": "32"
									}
								]
							},
							"reasonCode": [
								{
									"coding": [
										{
											"system": "http://hl7.eu/fhir/ig/pcsp/CodeSystem/cs-riskcondition-eu-pcsp",
											"code": "32"
										}
									]
								}
							],
							"status": "cancelled"
						}
					},
					{
						"detail": {
							"code": {
								"coding": [
									{
										"system": "http://hl7.eu/fhir/ig/pcsp/CodeSystem/cs-recommendation-eu-pcsp",
										"code": "33"
									}
								]
							},
							"reasonCode": [
								{
									"coding": [
										{
											"system": "http://hl7.eu/fhir/ig/pcsp/CodeSystem/cs-riskcondition-eu-pcsp",
											"code": "33"
										}
									]
								}
							],
							"status": "cancelled"
						}
					},
					{
						"detail": {
							"code": {
								"coding": [
									{
										"system": "http://hl7.eu/fhir/ig/pcsp/CodeSystem/cs-recommendation-eu-pcsp",
										"code": "35"
									}
								]
							},
							"reasonCode": [
								{
									"coding": [
										{
											"system": "http://hl7.eu/fhir/ig/pcsp/CodeSystem/cs-riskcondition-eu-pcsp",
											"code": "35"
										}
									]
								}
							],
							"status": "cancelled"
						}
					},
					{
						"detail": {
							"code": {
								"coding": [
									{
										"system": "http://hl7.eu/fhir/ig/pcsp/CodeSystem/cs-recommendation-eu-pcsp",
										"code": "36"
									}
								]
							},
							"reasonCode": [
								{
									"coding": [
										{
											"system": "http://hl7.eu/fhir/ig/pcsp/CodeSystem/cs-riskcondition-eu-pcsp",
											"code": "36"
										}
									]
								}
							],
							"status": "cancelled"
						}
					},
					{
						"detail": {
							"code": {
								"coding": [
									{
										"system": "http://hl7.eu/fhir/ig/pcsp/CodeSystem/cs-recommendation-eu-pcsp",
										"code": "37"
									}
								]
							},
							"reasonCode": [
								{
									"coding": [
										{
											"system": "http://hl7.eu/fhir/ig/pcsp/CodeSystem/cs-riskcondition-eu-pcsp",
											"code": "37"
										}
									]
								}
							],
							"status": "cancelled"
						}
					},
					{
						"detail": {
							"code": {
								"coding": [
									{
										"system": "http://hl7.eu/fhir/ig/pcsp/CodeSystem/cs-recommendation-eu-pcsp",
										"code": "38"
									}
								]
							},
							"reasonCode": [
								{
									"coding": [
										{
											"system": "http://hl7.eu/fhir/ig/pcsp/CodeSystem/cs-riskcondition-eu-pcsp",
											"code": "38"
										}
									]
								}
							],
							"status": "cancelled"
						}
					},
					{
						"detail": {
							"code": {
								"coding": [
									{
										"system": "http://hl7.eu/fhir/ig/pcsp/CodeSystem/cs-recommendation-eu-pcsp",
										"code": "39"
									}
								]
							},
							"reasonCode": [
								{
									"coding": [
										{
											"system": "http://hl7.eu/fhir/ig/pcsp/CodeSystem/cs-riskcondition-eu-pcsp",
											"code": "39"
										}
									]
								}
							],
							"status": "cancelled"
						}
					},
					{
						"detail": {
							"code": {
								"coding": [
									{
										"system": "http://hl7.eu/fhir/ig/pcsp/CodeSystem/cs-recommendation-eu-pcsp",
										"code": "40"
									}
								]
							},
							"reasonCode": [
								{
									"coding": [
										{
											"system": "http://hl7.eu/fhir/ig/pcsp/CodeSystem/cs-riskcondition-eu-pcsp",
											"code": "40"
										}
									]
								}
							],
							"status": "cancelled"
						}
					},
					{
						"detail": {
							"code": {
								"coding": [
									{
										"system": "http://hl7.eu/fhir/ig/pcsp/CodeSystem/cs-recommendation-eu-pcsp",
										"code": "41"
									}
								]
							},
							"reasonCode": [
								{
									"coding": [
										{
											"system": "http://hl7.eu/fhir/ig/pcsp/CodeSystem/cs-riskcondition-eu-pcsp",
											"code": "41"
										}
									]
								}
							],
							"reasonReference": [
								{
									"reference": "Observation/141966"
								},
								{
									"reference": "Observation/142973"
								}
							],
							"status": "cancelled"
						}
					},
					{
						"detail": {
							"code": {
								"coding": [
									{
										"system": "http://hl7.eu/fhir/ig/pcsp/CodeSystem/cs-recommendation-eu-pcsp",
										"code": "42"
									}
								]
							},
							"reasonCode": [
								{
									"coding": [
										{
											"system": "http://hl7.eu/fhir/ig/pcsp/CodeSystem/cs-riskcondition-eu-pcsp",
											"code": "42"
										}
									]
								}
							],
							"reasonReference": [
								{
									"reference": "Observation/142974"
								}
							],
							"status": "cancelled"
						}
					},
					{
						"detail": {
							"code": {
								"coding": [
									{
										"system": "http://hl7.eu/fhir/ig/pcsp/CodeSystem/cs-recommendation-eu-pcsp",
										"code": "43"
									}
								]
							},
							"reasonCode": [
								{
									"coding": [
										{
											"system": "http://hl7.eu/fhir/ig/pcsp/CodeSystem/cs-riskcondition-eu-pcsp",
											"code": "43"
										}
									]
								}
							],
							"status": "cancelled"
						}
					},
					{
						"detail": {
							"code": {
								"coding": [
									{
										"system": "http://hl7.eu/fhir/ig/pcsp/CodeSystem/cs-recommendation-eu-pcsp",
										"code": "44"
									}
								]
							},
							"reasonCode": [
								{
									"coding": [
										{
											"system": "http://hl7.eu/fhir/ig/pcsp/CodeSystem/cs-riskcondition-eu-pcsp",
											"code": "44"
										}
									]
								}
							],
							"status": "cancelled"
						}
					},
					{
						"detail": {
							"code": {
								"coding": [
									{
										"system": "http://hl7.eu/fhir/ig/pcsp/CodeSystem/cs-recommendation-eu-pcsp",
										"code": "45"
									}
								]
							},
							"reasonCode": [
								{
									"coding": [
										{
											"system": "http://hl7.eu/fhir/ig/pcsp/CodeSystem/cs-riskcondition-eu-pcsp",
											"code": "45"
										}
									]
								}
							],
							"status": "cancelled"
						}
					},
					{
						"detail": {
							"code": {
								"coding": [
									{
										"system": "http://hl7.eu/fhir/ig/pcsp/CodeSystem/cs-recommendation-eu-pcsp",
										"code": "47"
									}
								]
							},
							"reasonCode": [
								{
									"coding": [
										{
											"system": "http://hl7.eu/fhir/ig/pcsp/CodeSystem/cs-riskcondition-eu-pcsp",
											"code": "47"
										}
									]
								}
							],
							"status": "cancelled"
						}
					}
				],
				"note": [
					{
						"extension": [
							{
								"url": "http://hl7.eu/fhir/ig/pcsp/StructureDefinition/annotation-type",
								"valueCodeableConcept": {
									"coding": [
										{
											"system": "http://hl7.eu/fhir/ig/pcsp/CodeSystem/cs-generic-eu-pcsp",
											"code": "nar-chronicCond"
										}
									]
								}
							}
						],
						"text": "•\tReazione (orticaria + tosse stizzosa) a trasfusione di PLT in data 24/01/2018\r\n•\tEruzione orticariode agli AAII dopo somministrazione di Ceftriaxone\r\n•\tEnuresi notturna\r\n"
					}
				]
			},
			"search": {
				"mode": "match"
			}
		},
		{
			"fullUrl": "https://it-fhir.survivorshippassport.org:443/fhir/Procedure/170353",
			"resource": {
				"resourceType": "Procedure",
				"id": "170353",
				"meta": {
					"versionId": "2",
					"lastUpdated": "2025-06-29T20:29:41.319+02:00",
					"source": "#pPbAFANEoRpPHIrp"
				},
				"instantiatesCanonical": [
					"https://it-fhir.survivorshippassport.org/fhir/PlanDefinition/170303"
				],
				"category": {
					"coding": [
						{
							"system": "http://snomed.info/sct",
							"code": "708255002"
						}
					]
				},
				"subject": {
					"reference": "Patient/140994"
				},
				"performedPeriod": {
					"end": "2019-12-15"
				},
				"reasonReference": [
					{
						"reference": "Condition/140995"
					}
				]
			},
			"search": {
				"mode": "match"
			}
		},
		{
			"fullUrl": "https://it-fhir.survivorshippassport.org:443/fhir/MedicationAdministration/170305",
			"resource": {
				"resourceType": "MedicationAdministration",
				"id": "170305",
				"meta": {
					"versionId": "2",
					"lastUpdated": "2025-06-30T10:57:58.605+02:00",
					"source": "#pabqcHv7RiH0rdiR"
				},
				"extension": [
					{
						"url": "http://hl7.eu/fhir/ig/pcsp/StructureDefinition/resource-relatedInfo",
						"valueReference": {
							"reference": "Observation/170360"
						}
					}
				],
				"medicationCodeableConcept": {
					"coding": [
						{
							"system": "http://www.whocc.no/atc",
							"code": "L01BA01"
						}
					]
				},
				"subject": {
					"reference": "Patient/140994"
				},
				"effectivePeriod": {
					"start": "2017-10-10",
					"end": "2019-10-01"
				},
				"reasonReference": [
					{
						"reference": "Condition/140995"
					}
				]
			},
			"search": {
				"mode": "match"
			}
		},
		{
			"fullUrl": "https://it-fhir.survivorshippassport.org:443/fhir/MedicationAdministration/170306",
			"resource": {
				"resourceType": "MedicationAdministration",
				"id": "170306",
				"meta": {
					"versionId": "2",
					"lastUpdated": "2025-06-30T10:58:01.610+02:00",
					"source": "#9tjrjU8VeTo1Z6Mf"
				},
				"extension": [
					{
						"url": "http://hl7.eu/fhir/ig/pcsp/StructureDefinition/resource-relatedInfo",
						"valueReference": {
							"reference": "Observation/170315"
						}
					}
				],
				"medicationCodeableConcept": {
					"coding": [
						{
							"system": "http://www.whocc.no/atc",
							"code": "L01CA02"
						}
					]
				},
				"subject": {
					"reference": "Patient/140994"
				},
				"effectivePeriod": {
					"start": "2017-10-10",
					"end": "2019-10-01"
				},
				"reasonReference": [
					{
						"reference": "Condition/140995"
					}
				]
			},
			"search": {
				"mode": "match"
			}
		},
		{
			"fullUrl": "https://it-fhir.survivorshippassport.org:443/fhir/MedicationAdministration/170307",
			"resource": {
				"resourceType": "MedicationAdministration",
				"id": "170307",
				"meta": {
					"versionId": "2",
					"lastUpdated": "2025-06-30T10:58:02.295+02:00",
					"source": "#h9FWeIFWrL29zxB5"
				},
				"extension": [
					{
						"url": "http://hl7.eu/fhir/ig/pcsp/StructureDefinition/resource-relatedInfo",
						"valueReference": {
							"reference": "Observation/170316"
						}
					}
				],
				"medicationCodeableConcept": {
					"coding": [
						{
							"system": "http://www.whocc.no/atc",
							"code": "H02AB07"
						}
					]
				},
				"subject": {
					"reference": "Patient/140994"
				},
				"effectivePeriod": {
					"start": "2017-10-10",
					"end": "2019-10-01"
				},
				"reasonReference": [
					{
						"reference": "Condition/140995"
					}
				]
			},
			"search": {
				"mode": "match"
			}
		},
		{
			"fullUrl": "https://it-fhir.survivorshippassport.org:443/fhir/MedicationAdministration/170308",
			"resource": {
				"resourceType": "MedicationAdministration",
				"id": "170308",
				"meta": {
					"versionId": "2",
					"lastUpdated": "2025-06-30T10:58:03.004+02:00",
					"source": "#79lxeCwEr3uGJRqF"
				},
				"extension": [
					{
						"url": "http://hl7.eu/fhir/ig/pcsp/StructureDefinition/resource-relatedInfo",
						"valueReference": {
							"reference": "Observation/170317"
						}
					}
				],
				"medicationCodeableConcept": {
					"coding": [
						{
							"system": "http://www.whocc.no/atc",
							"code": "H02AB02"
						}
					]
				},
				"subject": {
					"reference": "Patient/140994"
				},
				"effectivePeriod": {
					"start": "2017-10-10",
					"end": "2019-10-01"
				},
				"reasonReference": [
					{
						"reference": "Condition/140995"
					}
				]
			},
			"search": {
				"mode": "match"
			}
		},
		{
			"fullUrl": "https://it-fhir.survivorshippassport.org:443/fhir/MedicationAdministration/170309",
			"resource": {
				"resourceType": "MedicationAdministration",
				"id": "170309",
				"meta": {
					"versionId": "2",
					"lastUpdated": "2025-06-30T10:58:04.396+02:00",
					"source": "#C6AjkRdW0rpGdrm3"
				},
				"extension": [
					{
						"url": "http://hl7.eu/fhir/ig/pcsp/StructureDefinition/resource-relatedInfo",
						"valueReference": {
							"reference": "Observation/170363"
						}
					}
				],
				"medicationCodeableConcept": {
					"coding": [
						{
							"system": "http://www.whocc.no/atc",
							"code": "L01BC01"
						}
					]
				},
				"subject": {
					"reference": "Patient/140994"
				},
				"effectivePeriod": {
					"start": "2017-10-10",
					"end": "2019-10-01"
				},
				"reasonReference": [
					{
						"reference": "Condition/140995"
					}
				]
			},
			"search": {
				"mode": "match"
			}
		},
		{
			"fullUrl": "https://it-fhir.survivorshippassport.org:443/fhir/MedicationAdministration/170310",
			"resource": {
				"resourceType": "MedicationAdministration",
				"id": "170310",
				"meta": {
					"versionId": "2",
					"lastUpdated": "2025-06-30T10:58:05.092+02:00",
					"source": "#2HIKx3tJ1VQEHX2U"
				},
				"extension": [
					{
						"url": "http://hl7.eu/fhir/ig/pcsp/StructureDefinition/resource-relatedInfo",
						"valueReference": {
							"reference": "Observation/170364"
						}
					}
				],
				"medicationCodeableConcept": {
					"coding": [
						{
							"system": "http://www.whocc.no/atc",
							"code": "L01BB02"
						}
					]
				},
				"subject": {
					"reference": "Patient/140994"
				},
				"effectivePeriod": {
					"start": "2017-10-10",
					"end": "2019-10-01"
				},
				"reasonReference": [
					{
						"reference": "Condition/140995"
					}
				]
			},
			"search": {
				"mode": "match"
			}
		},
		{
			"fullUrl": "https://it-fhir.survivorshippassport.org:443/fhir/MedicationStatement/170311",
			"resource": {
				"resourceType": "MedicationStatement",
				"id": "170311",
				"meta": {
					"versionId": "1",
					"lastUpdated": "2025-06-30T10:57:49.412+02:00",
					"source": "#S7vGSkSyFl3h4o7r"
				},
				"medicationCodeableConcept": {
					"coding": [
						{
							"system": "http://www.whocc.no/atc",
							"code": "H02"
						}
					]
				},
				"subject": {
					"reference": "Patient/140994"
				},
				"reasonReference": [
					{
						"reference": "Condition/140995"
					}
				],
				"dosage": [
					{
						"timing": {
							"repeat": {
								"boundsDuration": {
									"value": 4,
									"comparator": ">",
									"code": "w"
								}
							}
						}
					}
				]
			},
			"search": {
				"mode": "match"
			}
		},
		{
			"fullUrl": "https://it-fhir.survivorshippassport.org:443/fhir/MedicationStatement/170312",
			"resource": {
				"resourceType": "MedicationStatement",
				"id": "170312",
				"meta": {
					"versionId": "1",
					"lastUpdated": "2025-06-30T10:57:50.144+02:00",
					"source": "#7EYe0fn2d6tCVZMs"
				},
				"medicationCodeableConcept": {
					"text": "METHOTREXATE"
				},
				"subject": {
					"reference": "Patient/140994"
				},
				"reasonReference": [
					{
						"reference": "Condition/140995"
					}
				],
				"dosage": [
					{
						"route": {
							"coding": [
								{
									"system": "https://standardterms.edqm.eu",
									"code": "20042000"
								}
							]
						}
					},
					{
						"timing": {
							"repeat": {
								"count": 17
							}
						}
					}
				]
			},
			"search": {
				"mode": "match"
			}
		},
		{
			"fullUrl": "https://it-fhir.survivorshippassport.org:443/fhir/Observation/170313",
			"resource": {
				"resourceType": "Observation",
				"id": "170313",
				"meta": {
					"versionId": "1",
					"lastUpdated": "2025-06-30T10:57:52.303+02:00",
					"source": "#haHpwHHXpFKaqCNZ"
				},
				"extension": [
					{
						"url": "http://hl7.org/fhir/StructureDefinition/event-statusReason",
						"valueCodeableConcept": {
							"text": "Intention to treat"
						}
					}
				],
				"status": "preliminary",
				"subject": {
					"reference": "Patient/140994"
				},
				"valueQuantity": {
					"value": 120,
					"code": "mg/m2"
				},
				"method": {
					"coding": [
						{
							"system": "http://snomed.info/sct",
							"code": "703858009"
						}
					]
				}
			},
			"search": {
				"mode": "match"
			}
		},
		{
			"fullUrl": "https://it-fhir.survivorshippassport.org:443/fhir/Observation/170314",
			"resource": {
				"resourceType": "Observation",
				"id": "170314",
				"meta": {
					"versionId": "1",
					"lastUpdated": "2025-06-30T10:57:53.001+02:00",
					"source": "#wYt2yHkjEnGXfiHG"
				},
				"extension": [
					{
						"url": "http://hl7.org/fhir/StructureDefinition/event-statusReason",
						"valueCodeableConcept": {
							"text": "Intention to treat"
						}
					}
				],
				"status": "preliminary",
				"subject": {
					"reference": "Patient/140994"
				},
				"valueQuantity": {
					"value": 120,
					"code": "mg/m2"
				},
				"method": {
					"coding": [
						{
							"system": "http://snomed.info/sct",
							"code": "703858009"
						}
					]
				}
			},
			"search": {
				"mode": "match"
			}
		},
		{
			"fullUrl": "https://it-fhir.survivorshippassport.org:443/fhir/Observation/170315",
			"resource": {
				"resourceType": "Observation",
				"id": "170315",
				"meta": {
					"versionId": "1",
					"lastUpdated": "2025-06-30T10:57:53.699+02:00",
					"source": "#9ptzzeXlEr85ucy6"
				},
				"extension": [
					{
						"url": "http://hl7.org/fhir/StructureDefinition/event-statusReason",
						"valueCodeableConcept": {
							"text": "Intention to treat"
						}
					}
				],
				"status": "preliminary",
				"subject": {
					"reference": "Patient/140994"
				},
				"valueQuantity": {
					"value": 12,
					"code": "mg/m2"
				},
				"method": {
					"coding": [
						{
							"system": "http://snomed.info/sct",
							"code": "703858009"
						}
					]
				}
			},
			"search": {
				"mode": "match"
			}
		},
		{
			"fullUrl": "https://it-fhir.survivorshippassport.org:443/fhir/Observation/170316",
			"resource": {
				"resourceType": "Observation",
				"id": "170316",
				"meta": {
					"versionId": "1",
					"lastUpdated": "2025-06-30T10:57:54.427+02:00",
					"source": "#x1JZ30Ys1gqPcaU0"
				},
				"extension": [
					{
						"url": "http://hl7.org/fhir/StructureDefinition/event-statusReason",
						"valueCodeableConcept": {
							"text": "Intention to treat"
						}
					}
				],
				"status": "preliminary",
				"subject": {
					"reference": "Patient/140994"
				},
				"valueQuantity": {
					"code": "mg/m2"
				},
				"method": {
					"coding": [
						{
							"system": "http://snomed.info/sct",
							"code": "703858009"
						}
					]
				}
			},
			"search": {
				"mode": "match"
			}
		},
		{
			"fullUrl": "https://it-fhir.survivorshippassport.org:443/fhir/Observation/170317",
			"resource": {
				"resourceType": "Observation",
				"id": "170317",
				"meta": {
					"versionId": "1",
					"lastUpdated": "2025-06-30T10:57:55.104+02:00",
					"source": "#oYNpUIbf0oI8hvpH"
				},
				"extension": [
					{
						"url": "http://hl7.org/fhir/StructureDefinition/event-statusReason",
						"valueCodeableConcept": {
							"text": "Intention to treat"
						}
					}
				],
				"status": "preliminary",
				"subject": {
					"reference": "Patient/140994"
				},
				"valueQuantity": {
					"code": "mg/m2"
				},
				"method": {
					"coding": [
						{
							"system": "http://snomed.info/sct",
							"code": "703858009"
						}
					]
				}
			},
			"search": {
				"mode": "match"
			}
		},
		{
			"fullUrl": "https://it-fhir.survivorshippassport.org:443/fhir/Observation/170318",
			"resource": {
				"resourceType": "Observation",
				"id": "170318",
				"meta": {
					"versionId": "1",
					"lastUpdated": "2025-06-30T10:57:57.931+02:00",
					"source": "#p1NMHvhwXGVTbbWQ"
				},
				"extension": [
					{
						"url": "http://hl7.org/fhir/StructureDefinition/event-statusReason",
						"valueCodeableConcept": {
							"text": "Intention to treat"
						}
					}
				],
				"status": "preliminary",
				"subject": {
					"reference": "Patient/140994"
				},
				"valueQuantity": {
					"value": 840,
					"code": "mg/m2"
				},
				"method": {
					"coding": [
						{
							"system": "http://snomed.info/sct",
							"code": "703858009"
						}
					]
				}
			},
			"search": {
				"mode": "match"
			}
		},
		{
			"fullUrl": "https://it-fhir.survivorshippassport.org:443/fhir/MedicationAdministration/170355",
			"resource": {
				"resourceType": "MedicationAdministration",
				"id": "170355",
				"meta": {
					"versionId": "2",
					"lastUpdated": "2025-06-30T10:57:59.408+02:00",
					"source": "#gZIaWAJNDVOtghOo"
				},
				"extension": [
					{
						"url": "http://hl7.eu/fhir/ig/pcsp/StructureDefinition/resource-relatedInfo",
						"valueReference": {
							"reference": "Observation/170361"
						}
					}
				],
				"medicationCodeableConcept": {
					"coding": [
						{
							"system": "http://www.whocc.no/atc",
							"code": "L01XX02"
						}
					]
				},
				"subject": {
					"reference": "Patient/140994"
				},
				"effectivePeriod": {
					"start": "2017-10-10",
					"end": "2019-10-01"
				},
				"reasonReference": [
					{
						"reference": "Condition/140995"
					}
				]
			},
			"search": {
				"mode": "match"
			}
		},
		{
			"fullUrl": "https://it-fhir.survivorshippassport.org:443/fhir/MedicationAdministration/170356",
			"resource": {
				"resourceType": "MedicationAdministration",
				"id": "170356",
				"meta": {
					"versionId": "2",
					"lastUpdated": "2025-06-30T10:58:00.109+02:00",
					"source": "#C7kOdiBR70qKW6Yr"
				},
				"extension": [
					{
						"url": "http://hl7.eu/fhir/ig/pcsp/StructureDefinition/resource-relatedInfo",
						"valueReference": {
							"reference": "Observation/170313"
						}
					}
				],
				"medicationCodeableConcept": {
					"coding": [
						{
							"system": "http://www.whocc.no/atc",
							"code": "L01DB01"
						}
					]
				},
				"subject": {
					"reference": "Patient/140994"
				},
				"effectivePeriod": {
					"start": "2017-10-10",
					"end": "2019-10-01"
				},
				"reasonReference": [
					{
						"reference": "Condition/140995"
					}
				]
			},
			"search": {
				"mode": "match"
			}
		},
		{
			"fullUrl": "https://it-fhir.survivorshippassport.org:443/fhir/MedicationAdministration/170357",
			"resource": {
				"resourceType": "MedicationAdministration",
				"id": "170357",
				"meta": {
					"versionId": "2",
					"lastUpdated": "2025-06-30T10:58:00.987+02:00",
					"source": "#9JBNRFkTqn1smDcg"
				},
				"extension": [
					{
						"url": "http://hl7.eu/fhir/ig/pcsp/StructureDefinition/resource-relatedInfo",
						"valueReference": {
							"reference": "Observation/170314"
						}
					}
				],
				"medicationCodeableConcept": {
					"coding": [
						{
							"system": "http://www.whocc.no/atc",
							"code": "L01DB02"
						}
					]
				},
				"subject": {
					"reference": "Patient/140994"
				},
				"effectivePeriod": {
					"start": "2017-10-10",
					"end": "2019-10-01"
				},
				"reasonReference": [
					{
						"reference": "Condition/140995"
					}
				]
			},
			"search": {
				"mode": "match"
			}
		},
		{
			"fullUrl": "https://it-fhir.survivorshippassport.org:443/fhir/MedicationAdministration/170358",
			"resource": {
				"resourceType": "MedicationAdministration",
				"id": "170358",
				"meta": {
					"versionId": "2",
					"lastUpdated": "2025-06-30T10:58:03.738+02:00",
					"source": "#MBLyYQUeqC2JhQ5Y"
				},
				"extension": [
					{
						"url": "http://hl7.eu/fhir/ig/pcsp/StructureDefinition/resource-relatedInfo",
						"valueReference": {
							"reference": "Observation/170362"
						}
					}
				],
				"medicationCodeableConcept": {
					"coding": [
						{
							"system": "http://www.whocc.no/atc",
							"code": "L01AA01"
						}
					]
				},
				"subject": {
					"reference": "Patient/140994"
				},
				"effectivePeriod": {
					"start": "2017-10-10",
					"end": "2019-10-01"
				},
				"reasonReference": [
					{
						"reference": "Condition/140995"
					}
				]
			},
			"search": {
				"mode": "match"
			}
		},
		{
			"fullUrl": "https://it-fhir.survivorshippassport.org:443/fhir/MedicationAdministration/170359",
			"resource": {
				"resourceType": "MedicationAdministration",
				"id": "170359",
				"meta": {
					"versionId": "2",
					"lastUpdated": "2025-06-30T10:58:05.713+02:00",
					"source": "#j7Tn7wX0QwZNw0ct"
				},
				"extension": [
					{
						"url": "http://hl7.eu/fhir/ig/pcsp/StructureDefinition/resource-relatedInfo",
						"valueReference": {
							"reference": "Observation/170318"
						}
					}
				],
				"medicationCodeableConcept": {
					"coding": [
						{
							"system": "http://www.whocc.no/atc",
							"code": "L01BB03"
						}
					]
				},
				"subject": {
					"reference": "Patient/140994"
				},
				"effectivePeriod": {
					"start": "2017-10-10",
					"end": "2019-10-01"
				},
				"reasonReference": [
					{
						"reference": "Condition/140995"
					}
				]
			},
			"search": {
				"mode": "match"
			}
		},
		{
			"fullUrl": "https://it-fhir.survivorshippassport.org:443/fhir/Observation/170360",
			"resource": {
				"resourceType": "Observation",
				"id": "170360",
				"meta": {
					"versionId": "1",
					"lastUpdated": "2025-06-30T10:57:50.808+02:00",
					"source": "#c8iamxLqqOy8WgYq"
				},
				"extension": [
					{
						"url": "http://hl7.org/fhir/StructureDefinition/event-statusReason",
						"valueCodeableConcept": {
							"text": "Intention to treat"
						}
					}
				],
				"status": "preliminary",
				"subject": {
					"reference": "Patient/140994"
				},
				"valueQuantity": {
					"value": 21480,
					"code": "mg/m2"
				},
				"method": {
					"coding": [
						{
							"system": "http://snomed.info/sct",
							"code": "703858009"
						}
					]
				}
			},
			"search": {
				"mode": "match"
			}
		},
		{
			"fullUrl": "https://it-fhir.survivorshippassport.org:443/fhir/Observation/170361",
			"resource": {
				"resourceType": "Observation",
				"id": "170361",
				"meta": {
					"versionId": "1",
					"lastUpdated": "2025-06-30T10:57:51.614+02:00",
					"source": "#n9S0DqSCsGY7Yj7j"
				},
				"extension": [
					{
						"url": "http://hl7.org/fhir/StructureDefinition/event-statusReason",
						"valueCodeableConcept": {
							"text": "Intention to treat"
						}
					}
				],
				"status": "preliminary",
				"subject": {
					"reference": "Patient/140994"
				},
				"valueQuantity": {
					"value": 7500,
					"code": "[iU]/m2"
				},
				"method": {
					"coding": [
						{
							"system": "http://snomed.info/sct",
							"code": "703858009"
						}
					]
				}
			},
			"search": {
				"mode": "match"
			}
		},
		{
			"fullUrl": "https://it-fhir.survivorshippassport.org:443/fhir/Observation/170362",
			"resource": {
				"resourceType": "Observation",
				"id": "170362",
				"meta": {
					"versionId": "1",
					"lastUpdated": "2025-06-30T10:57:55.789+02:00",
					"source": "#Ucq9YFrifFbj0a1B"
				},
				"extension": [
					{
						"url": "http://hl7.org/fhir/StructureDefinition/event-statusReason",
						"valueCodeableConcept": {
							"text": "Intention to treat"
						}
					}
				],
				"status": "preliminary",
				"subject": {
					"reference": "Patient/140994"
				},
				"valueQuantity": {
					"value": 3000,
					"code": "mg/m2"
				},
				"method": {
					"coding": [
						{
							"system": "http://snomed.info/sct",
							"code": "703858009"
						}
					]
				}
			},
			"search": {
				"mode": "match"
			}
		},
		{
			"fullUrl": "https://it-fhir.survivorshippassport.org:443/fhir/Observation/170363",
			"resource": {
				"resourceType": "Observation",
				"id": "170363",
				"meta": {
					"versionId": "1",
					"lastUpdated": "2025-06-30T10:57:56.506+02:00",
					"source": "#AY8cOiPMhBCHCiyt"
				},
				"extension": [
					{
						"url": "http://hl7.org/fhir/StructureDefinition/event-statusReason",
						"valueCodeableConcept": {
							"text": "Intention to treat"
						}
					}
				],
				"status": "preliminary",
				"subject": {
					"reference": "Patient/140994"
				},
				"valueQuantity": {
					"value": 1800,
					"code": "mg/m2"
				},
				"method": {
					"coding": [
						{
							"system": "http://snomed.info/sct",
							"code": "703858009"
						}
					]
				}
			},
			"search": {
				"mode": "match"
			}
		},
		{
			"fullUrl": "https://it-fhir.survivorshippassport.org:443/fhir/Observation/170364",
			"resource": {
				"resourceType": "Observation",
				"id": "170364",
				"meta": {
					"versionId": "1",
					"lastUpdated": "2025-06-30T10:57:57.218+02:00",
					"source": "#KfU7f0T4snznyJ6U"
				},
				"extension": [
					{
						"url": "http://hl7.org/fhir/StructureDefinition/event-statusReason",
						"valueCodeableConcept": {
							"text": "Intention to treat"
						}
					}
				],
				"status": "preliminary",
				"subject": {
					"reference": "Patient/140994"
				},
				"valueQuantity": {
					"value": 28980,
					"code": "mg/m2"
				},
				"method": {
					"coding": [
						{
							"system": "http://snomed.info/sct",
							"code": "703858009"
						}
					]
				}
			},
			"search": {
				"mode": "match"
			}
		},
		{
			"fullUrl": "https://it-fhir.survivorshippassport.org:443/fhir/Organization/170354",
			"resource": {
				"resourceType": "Organization",
				"id": "170354",
				"meta": {
					"versionId": "1",
					"lastUpdated": "2025-06-30T10:35:02.009+02:00",
					"source": "#xZLatM4gpwDjka1t"
				},
				"name": "U.O. ONCOEMATOLOGIA PEDIATRICA, PISA"
			},
			"search": {
				"mode": "match"
			}
		},
		{
			"fullUrl": "https://it-fhir.survivorshippassport.org:443/fhir/Encounter/170304",
			"resource": {
				"resourceType": "Encounter",
				"id": "170304",
				"meta": {
					"versionId": "2",
					"lastUpdated": "2025-06-30T10:35:03.306+02:00",
					"source": "#M3eHZ9BwawwL6BTw"
				},
				"period": {
					"start": "2017-12-09"
				},
				"serviceProvider": {
					"reference": "Organization/170354"
				}
			},
			"search": {
				"mode": "match"
			}
		}
	]
}