{
	"resourceType": "Bundle",
	"id": "8f742ffd-52a9-4a74-bb2f-f730fa945490",
	"meta": {
		"lastUpdated": "2025-07-08T16:02:09.705+02:00"
	},
	"type": "searchset",
	"total": 29,
	"link": [
		{
			"relation": "self",
			"url": "https://be-fhir.survivorshippassport.org:443/fhir/Patient/77954/$everything?_count=1000"
		}
	],
	"entry": [
		{
			"fullUrl": "https://be-fhir.survivorshippassport.org:443/fhir/Patient/77954",
			"resource": {
				"resourceType": "Patient",
				"id": "77954",
				"meta": {
					"versionId": "2",
					"lastUpdated": "2024-09-17T12:04:14.001+02:00",
					"source": "#qXq9ThbpOWZXXoWs",
					"profile": [
						"http://hl7.eu/fhir/ig/pcsp/StructureDefinition/Patient-eu-pcsp"
					]
				},
				"text": {
					"status": "generated"
				},
				"extension": [
					{
						"url": "http://hl7.org/fhir/StructureDefinition/patient-birthPlace",
						"valueAddress": {
							"city": "CINECA"
						}
					}
				],
				"name": [
					{
						"family": "Elena",
						"given": [
							"Belgio"
						]
					},
					{
						"use": "old",
						"family": "Belgio"
					}
				],
				"telecom": [
					{
						"system": "email",
						"value": "privacy@gmail.com"
					}
				],
				"gender": "female",
				"birthDate": "2002-10-10",
				"contact": [
					{
						"relationship": [
							{
								"coding": [
									{
										"system": "http://terminology.hl7.org/CodeSystem/v3-RoleCode",
										"code": "ONESELF"
									}
								]
							}
						],
						"telecom": [
							{
								"system": "email",
								"value": "test@test.it"
							},
							{
								"system": "phone",
								"value": "3931234567"
							}
						]
					}
				]
			},
			"search": {
				"mode": "match"
			}
		},
		{
			"fullUrl": "https://be-fhir.survivorshippassport.org:443/fhir/Condition/77955",
			"resource": {
				"resourceType": "Condition",
				"id": "77955",
				"meta": {
					"versionId": "2",
					"lastUpdated": "2024-09-17T14:02:04.623+02:00",
					"source": "#BHXJBi5rgb3kAEpr",
					"profile": [
						"http://hl7.eu/fhir/ig/pcsp/StructureDefinition/Condition-primaryCancer-eu-pcsp"
					]
				},
				"extension": [
					{
						"url": "http://hl7.org/fhir/StructureDefinition/condition-assertedDate",
						"valueDateTime": "2018-11-05"
					},
					{
						"url": "http://hl7.org/fhir/us/mcode/StructureDefinition/mcode-histology-morphology-behavior",
						"valueCodeableConcept": {
							"coding": [
								{
									"system": "http://terminology.hl7.org/CodeSystem/icd-o-3",
									"code": "8920/3"
								}
							]
						}
					}
				],
				"identifier": [
					{
						"system": "http://hl7.eu/fhir/ig/pcsp/sid/pat-id-uzl",
						"value": "232747"
					}
				],
				"code": {
					"text": "Fusie negatief"
				},
				"bodySite": [
					{
						"extension": [
							{
								"url": "http://hl7.eu/fhir/ig/pcsp/StructureDefinition/mcode-laterality-qualifier",
								"valueCodeableConcept": {
									"coding": [
										{
											"system": "http://snomed.info/sct",
											"code": "7771000"
										}
									]
								}
							}
						],
						"coding": [
							{
								"system": "http://terminology.hl7.org/CodeSystem/icd-o-3",
								"code": "C49.5"
							}
						],
						"text": "Adenopathieen inguinaal links, geen andere lokalisaties"
					}
				],
				"subject": {
					"reference": "Patient/77954"
				}
			},
			"search": {
				"mode": "match"
			}
		},
		{
			"fullUrl": "https://be-fhir.survivorshippassport.org:443/fhir/Observation/77956",
			"resource": {
				"resourceType": "Observation",
				"id": "77956",
				"meta": {
					"versionId": "2",
					"lastUpdated": "2024-09-17T14:08:22.714+02:00",
					"source": "#P4t5Dlyha08cpNTi",
					"profile": [
						"http://hl7.eu/fhir/ig/pcsp/StructureDefinition/Observation-cumulativeDoseChemo-eu-pcsp"
					]
				},
				"identifier": [
					{
						"system": "http://hl7.eu/fhir/ig/pcsp/sid/pat-id-uzl",
						"value": "232748"
					}
				],
				"subject": {
					"reference": "Patient/77954"
				},
				"valueQuantity": {
					"value": 54000,
					"code": "mg/m2"
				},
				"method": {
					"coding": [
						{
							"system": "http://snomed.info/sct",
							"code": "702873001"
						}
					]
				}
			},
			"search": {
				"mode": "match"
			}
		},
		{
			"fullUrl": "https://be-fhir.survivorshippassport.org:443/fhir/Observation/77957",
			"resource": {
				"resourceType": "Observation",
				"id": "77957",
				"meta": {
					"versionId": "2",
					"lastUpdated": "2024-09-17T14:08:22.123+02:00",
					"source": "#tLno4BSvBx6PkqDU",
					"profile": [
						"http://hl7.eu/fhir/ig/pcsp/StructureDefinition/Observation-cumulativeDoseChemo-eu-pcsp"
					]
				},
				"identifier": [
					{
						"system": "http://hl7.eu/fhir/ig/pcsp/sid/pat-id-uzl",
						"value": "232749"
					}
				],
				"subject": {
					"reference": "Patient/77954"
				},
				"valueQuantity": {
					"value": 270,
					"code": "mg/m2"
				},
				"method": {
					"coding": [
						{
							"system": "http://snomed.info/sct",
							"code": "702873001"
						}
					]
				}
			},
			"search": {
				"mode": "match"
			}
		},
		{
			"fullUrl": "https://be-fhir.survivorshippassport.org:443/fhir/Observation/77958",
			"resource": {
				"resourceType": "Observation",
				"id": "77958",
				"meta": {
					"versionId": "2",
					"lastUpdated": "2024-09-17T14:08:23.325+02:00",
					"source": "#qc97ltREMxVS9D4B",
					"profile": [
						"http://hl7.eu/fhir/ig/pcsp/StructureDefinition/Observation-cumulativeDoseChemo-eu-pcsp"
					]
				},
				"identifier": [
					{
						"system": "http://hl7.eu/fhir/ig/pcsp/sid/pat-id-uzl",
						"value": "232750"
					}
				],
				"subject": {
					"reference": "Patient/77954"
				},
				"valueQuantity": {
					"code": "mg/m2"
				},
				"method": {
					"coding": [
						{
							"system": "http://snomed.info/sct",
							"code": "702873001"
						}
					]
				}
			},
			"search": {
				"mode": "match"
			}
		},
		{
			"fullUrl": "https://be-fhir.survivorshippassport.org:443/fhir/Observation/77959",
			"resource": {
				"resourceType": "Observation",
				"id": "77959",
				"meta": {
					"versionId": "2",
					"lastUpdated": "2024-09-17T14:08:23.918+02:00",
					"source": "#uihrLixua66aYsw9",
					"profile": [
						"http://hl7.eu/fhir/ig/pcsp/StructureDefinition/Observation-cumulativeDoseChemo-eu-pcsp"
					]
				},
				"identifier": [
					{
						"system": "http://hl7.eu/fhir/ig/pcsp/sid/pat-id-uzl",
						"value": "232751"
					}
				],
				"subject": {
					"reference": "Patient/77954"
				},
				"valueQuantity": {
					"code": "mg/m2"
				},
				"method": {
					"coding": [
						{
							"system": "http://snomed.info/sct",
							"code": "702873001"
						}
					]
				}
			},
			"search": {
				"mode": "match"
			}
		},
		{
			"fullUrl": "https://be-fhir.survivorshippassport.org:443/fhir/Observation/77960",
			"resource": {
				"resourceType": "Observation",
				"id": "77960",
				"meta": {
					"versionId": "2",
					"lastUpdated": "2024-09-17T14:08:17.550+02:00",
					"source": "#xur7DzurFcxB5mno",
					"profile": [
						"http://hl7.eu/fhir/ig/pcsp/StructureDefinition/Observation-cumulativeDoseChemo-eu-pcsp"
					]
				},
				"identifier": [
					{
						"system": "http://hl7.eu/fhir/ig/pcsp/sid/pat-id-uzl",
						"value": "232752"
					}
				],
				"subject": {
					"reference": "Patient/77954"
				},
				"valueQuantity": {
					"code": "mg/m2"
				},
				"method": {
					"coding": [
						{
							"system": "http://snomed.info/sct",
							"code": "702873001"
						}
					]
				}
			},
			"search": {
				"mode": "match"
			}
		},
		{
			"fullUrl": "https://be-fhir.survivorshippassport.org:443/fhir/Observation/77961",
			"resource": {
				"resourceType": "Observation",
				"id": "77961",
				"meta": {
					"versionId": "2",
					"lastUpdated": "2024-09-17T14:08:21.523+02:00",
					"source": "#hj7xzm3KspZoTXHX",
					"profile": [
						"http://hl7.eu/fhir/ig/pcsp/StructureDefinition/Observation-cumulativeDoseChemo-eu-pcsp"
					]
				},
				"identifier": [
					{
						"system": "http://hl7.eu/fhir/ig/pcsp/sid/pat-id-uzl",
						"value": "232753"
					}
				],
				"subject": {
					"reference": "Patient/77954"
				},
				"valueQuantity": {
					"code": "mg/m2"
				},
				"method": {
					"coding": [
						{
							"system": "http://snomed.info/sct",
							"code": "702873001"
						}
					]
				}
			},
			"search": {
				"mode": "match"
			}
		},
		{
			"fullUrl": "https://be-fhir.survivorshippassport.org:443/fhir/MedicationAdministration/77962",
			"resource": {
				"resourceType": "MedicationAdministration",
				"id": "77962",
				"meta": {
					"versionId": "3",
					"lastUpdated": "2024-09-17T14:08:31.924+02:00",
					"source": "#gwXLlbqnnMPTDokz",
					"profile": [
						"http://hl7.eu/fhir/ig/pcsp/StructureDefinition/MedicationAdministration-eu-pcsp"
					]
				},
				"extension": [
					{
						"url": "http://hl7.eu/fhir/ig/pcsp/StructureDefinition/resource-relatedInfo",
						"valueReference": {
							"reference": "Observation/77960"
						}
					}
				],
				"identifier": [
					{
						"system": "http://hl7.eu/fhir/ig/pcsp/sid/pat-id-uzl",
						"value": "232754"
					}
				],
				"medicationCodeableConcept": {
					"coding": [
						{
							"system": "http://www.whocc.no/atc",
							"code": "L01AA01"
						}
					]
				},
				"subject": {
					"reference": "Patient/77954"
				},
				"effectivePeriod": {
					"start": "2018-11-26",
					"end": "2020-07-16"
				},
				"reasonReference": [
					{
						"reference": "Condition/77955"
					}
				]
			},
			"search": {
				"mode": "match"
			}
		},
		{
			"fullUrl": "https://be-fhir.survivorshippassport.org:443/fhir/MedicationAdministration/77963",
			"resource": {
				"resourceType": "MedicationAdministration",
				"id": "77963",
				"meta": {
					"versionId": "3",
					"lastUpdated": "2024-09-17T14:08:25.791+02:00",
					"source": "#EjukmbiOcR99t5Lj",
					"profile": [
						"http://hl7.eu/fhir/ig/pcsp/StructureDefinition/MedicationAdministration-eu-pcsp"
					]
				},
				"extension": [
					{
						"url": "http://hl7.eu/fhir/ig/pcsp/StructureDefinition/resource-relatedInfo",
						"valueReference": {
							"reference": "Observation/77961"
						}
					}
				],
				"identifier": [
					{
						"system": "http://hl7.eu/fhir/ig/pcsp/sid/pat-id-uzl",
						"value": "232755"
					}
				],
				"medicationCodeableConcept": {
					"coding": [
						{
							"system": "http://www.whocc.no/atc",
							"code": "L01DA01"
						}
					]
				},
				"subject": {
					"reference": "Patient/77954"
				},
				"effectivePeriod": {
					"start": "2018-11-26",
					"end": "2020-07-16"
				},
				"reasonReference": [
					{
						"reference": "Condition/77955"
					}
				]
			},
			"search": {
				"mode": "match"
			}
		},
		{
			"fullUrl": "https://be-fhir.survivorshippassport.org:443/fhir/MedicationAdministration/77964",
			"resource": {
				"resourceType": "MedicationAdministration",
				"id": "77964",
				"meta": {
					"versionId": "3",
					"lastUpdated": "2024-09-17T14:08:26.422+02:00",
					"source": "#dlQc3qtdDzgnRBo2",
					"profile": [
						"http://hl7.eu/fhir/ig/pcsp/StructureDefinition/MedicationAdministration-eu-pcsp"
					]
				},
				"extension": [
					{
						"url": "http://hl7.eu/fhir/ig/pcsp/StructureDefinition/resource-relatedInfo",
						"valueReference": {
							"reference": "Observation/77957"
						}
					}
				],
				"identifier": [
					{
						"system": "http://hl7.eu/fhir/ig/pcsp/sid/pat-id-uzl",
						"value": "232756"
					}
				],
				"medicationCodeableConcept": {
					"coding": [
						{
							"system": "http://www.whocc.no/atc",
							"code": "L01DB01"
						}
					]
				},
				"subject": {
					"reference": "Patient/77954"
				},
				"effectivePeriod": {
					"start": "2018-11-26",
					"end": "2020-07-16"
				},
				"reasonReference": [
					{
						"reference": "Condition/77955"
					}
				]
			},
			"search": {
				"mode": "match"
			}
		},
		{
			"fullUrl": "https://be-fhir.survivorshippassport.org:443/fhir/Procedure/78003",
			"resource": {
				"resourceType": "Procedure",
				"id": "78003",
				"meta": {
					"versionId": "1",
					"lastUpdated": "2024-09-17T14:24:14.996+02:00",
					"source": "#hw40aomWAKeATraO"
				},
				"code": {
					"coding": [
						{
							"system": "http://snomed.info/sct",
							"code": "392230005"
						}
					]
				},
				"subject": {
					"reference": "Patient/77954"
				},
				"reasonReference": [
					{
						"reference": "Condition/77955"
					}
				],
				"bodySite": [
					{
						"text": "Vena Cephalica links"
					}
				],
				"focalDevice": [
					{
						"action": {
							"coding": [
								{
									"system": "http://snomed.info/sct",
									"code": "129303008"
								}
							]
						}
					}
				]
			},
			"search": {
				"mode": "match"
			}
		},
		{
			"fullUrl": "https://be-fhir.survivorshippassport.org:443/fhir/Composition/80976",
			"resource": {
				"resourceType": "Composition",
				"id": "80976",
				"meta": {
					"versionId": "1",
					"lastUpdated": "2024-09-24T08:26:44.089+02:00",
					"source": "#4vy8Q8OT6M1ugji7"
				},
				"type": {
					"coding": [
						{
							"system": "http://hl7.eu/fhir/ig/pcsp/CodeSystem/cs-generic-eu-pcsp",
							"code": "surpass"
						}
					]
				},
				"subject": {
					"reference": "Patient/77954"
				},
				"date": "2024-09-24",
				"title": "Childhood Cancer Survivor Passport",
				"section": [
					{
						"title": "Care Plan",
						"code": {
							"coding": [
								{
									"system": "http://loinc.org",
									"code": "18776-5"
								}
							]
						},
						"entry": [
							{
								"reference": "CarePlan/79998"
							},
							{
								"reference": "DocumentReference/80963"
							}
						]
					},
					{
						"title": "Diagnosis",
						"code": {
							"coding": [
								{
									"system": "http://loinc.org",
									"code": "72135-7"
								}
							]
						},
						"entry": [
							{
								"reference": "Condition/77955"
							},
							{
								"reference": "Procedure/77973"
							}
						],
						"section": [
							{
								"title": "Chemotherapy",
								"code": {
									"coding": [
										{
											"system": "http://loinc.org",
											"code": "11486-8"
										}
									]
								},
								"entry": [
									{
										"reference": "MedicationAdministration/77962"
									},
									{
										"reference": "MedicationAdministration/77963"
									},
									{
										"reference": "MedicationAdministration/77964"
									},
									{
										"reference": "MedicationAdministration/77965"
									},
									{
										"reference": "MedicationAdministration/77966"
									},
									{
										"reference": "MedicationAdministration/77967"
									}
								]
							},
							{
								"title": "Radiation Therapy Episode",
								"code": {
									"coding": [
										{
											"system": "http://hl7.eu/fhir/ig/pcsp/CodeSystem/cs-generic-eu-pcsp",
											"code": "section-rt"
										}
									]
								},
								"entry": [
									{
										"reference": "Procedure/77968"
									},
									{
										"reference": "Procedure/77970"
									}
								]
							},
							{
								"title": "Major Surgery",
								"code": {
									"coding": [
										{
											"system": "http://loinc.org",
											"code": "8690-0"
										}
									]
								},
								"entry": [
									{
										"reference": "Procedure/77971"
									}
								]
							},
							{
								"title": "Other relevant clinical information and events",
								"code": {
									"coding": [
										{
											"system": "http://hl7.eu/fhir/ig/pcsp/CodeSystem/cs-generic-eu-pcsp",
											"code": "section-otherInfos"
										}
									]
								},
								"entry": [
									{
										"reference": "Condition/77975"
									},
									{
										"reference": "Procedure/78003"
									},
									{
										"reference": "Procedure/77976"
									}
								]
							}
						]
					}
				]
			},
			"search": {
				"mode": "match"
			}
		},
		{
			"fullUrl": "https://be-fhir.survivorshippassport.org:443/fhir/DocumentReference/80963",
			"resource": {
				"resourceType": "DocumentReference",
				"id": "80963",
				"meta": {
					"versionId": "1",
					"lastUpdated": "2024-09-24T08:26:12.435+02:00",
					"source": "#LNDTKE7af0qH4Y1s"
				},
				"type": {
					"coding": [
						{
							"system": "http://hl7.eu/fhir/ig/pcsp/CodeSystem/cs-generic-eu-pcsp",
							"code": "surpass"
						}
					]
				},
				"subject": {
					"reference": "Patient/77954"
				},
				"content": [
					{
						"attachment": {
							"language": "it",
							"data": "",
							"title": "passport-74_2.it.pdf.enc"
						}
					},
					{
						"attachment": {
							"language": "es",
							"data": "",
							"title": "passport-74_2.es.pdf.enc"
						}
					},
					{
						"attachment": {
							"language": "lt",
							"data": "",
							"title": "passport-74_2.lt.pdf.enc"
						}
					},
					{
						"attachment": {
							"language": "de",
							"data": "",
							"title": "passport-74_2.de.pdf.enc"
						}
					},
					{
						"attachment": {
							"language": "be",
							"data": "",
							"title": "passport-74_2.be.pdf.enc"
						}
					},
					{
						"attachment": {
							"language": "en",
							"data": "",
							"title": "passport-74_2.en.pdf.enc"
						}
					}
				],
				"context": {
					"related": [
						{
							"reference": "Condition/77955"
						}
					]
				}
			},
			"search": {
				"mode": "match"
			}
		},
		{
			"fullUrl": "https://be-fhir.survivorshippassport.org:443/fhir/Procedure/77976",
			"resource": {
				"resourceType": "Procedure",
				"id": "77976",
				"meta": {
					"versionId": "1",
					"lastUpdated": "2024-09-17T14:24:16.427+02:00",
					"source": "#YDG80rQvxEWA1GHe"
				},
				"code": {
					"coding": [
						{
							"system": "http://snomed.info/sct",
							"code": "5447007"
						}
					]
				},
				"subject": {
					"reference": "Patient/77954"
				},
				"performedDateTime": "2019-05-28",
				"reasonReference": [
					{
						"reference": "Condition/77955"
					}
				]
			},
			"search": {
				"mode": "match"
			}
		},
		{
			"fullUrl": "https://be-fhir.survivorshippassport.org:443/fhir/Condition/77975",
			"resource": {
				"resourceType": "Condition",
				"id": "77975",
				"meta": {
					"versionId": "1",
					"lastUpdated": "2024-09-17T14:24:15.663+02:00",
					"source": "#oqGN7tbZfhqAfN8P"
				},
				"clinicalStatus": {
					"coding": [
						{
							"system": "http://terminology.hl7.org/CodeSystem/condition-clinical",
							"code": "resolved"
						}
					]
				},
				"code": {
					"coding": [
						{
							"system": "http://snomed.info/sct",
							"code": "75478009"
						}
					]
				},
				"subject": {
					"reference": "Patient/77954"
				},
				"onsetDateTime": "2020-07-24",
				"note": [
					{
						"text": "Perifere sensibele neuropathie tgv chemotherapie (Vincristine) met fors gestoorde proprioceptie en zwakke peesreflexen ter hoogte van de benen"
					}
				]
			},
			"search": {
				"mode": "match"
			}
		},
		{
			"fullUrl": "https://be-fhir.survivorshippassport.org:443/fhir/DocumentReference/79959",
			"resource": {
				"resourceType": "DocumentReference",
				"id": "79959",
				"meta": {
					"versionId": "1",
					"lastUpdated": "2024-09-19T11:40:10.563+02:00",
					"source": "#Eg565mwu121zdZPY"
				},
				"type": {
					"coding": [
						{
							"system": "http://hl7.eu/fhir/ig/pcsp/CodeSystem/cs-generic-eu-pcsp",
							"code": "surpass"
						}
					]
				},
				"subject": {
					"reference": "Patient/77954"
				},
				"content": [
					{
						"attachment": {
							"language": "it",
							"data": "",
							"title": "passport-74_1.it.pdf.enc"
						}
					},
					{
						"attachment": {
							"language": "es",
							"data": "",
							"title": "passport-74_1.es.pdf.enc"
						}
					},
					{
						"attachment": {
							"language": "lt",
							"data": "",
							"title": "passport-74_1.lt.pdf.enc"
						}
					},
					{
						"attachment": {
							"language": "de",
							"data": "",
							"title": "passport-74_1.de.pdf.enc"
						}
					},
					{
						"attachment": {
							"language": "be",
							"data": "",
							"title": "passport-74_1.be.pdf.enc"
						}
					},
					{
						"attachment": {
							"language": "en",
							"data": "",
							"title": "passport-74_1.en.pdf.enc"
						}
					}
				],
				"context": {
					"related": [
						{
							"reference": "Condition/77955"
						}
					]
				}
			},
			"search": {
				"mode": "match"
			}
		},
		{
			"fullUrl": "https://be-fhir.survivorshippassport.org:443/fhir/CarePlan/79958",
			"resource": {
				"resourceType": "CarePlan",
				"id": "79958",
				"meta": {
					"versionId": "2",
					"lastUpdated": "2024-09-19T11:40:26.765+02:00",
					"source": "#mQZH7FGIMhj5N70E"
				},
				"subject": {
					"reference": "Patient/77954"
				},
				"created": "2024-09-19",
				"addresses": [
					{
						"reference": "Condition/77955"
					}
				],
				"activity": [
					{
						"detail": {
							"code": {
								"coding": [
									{
										"system": "http://hl7.eu/fhir/ig/pcsp/CodeSystem/cs-recommendation-eu-pcsp",
										"code": "1"
									}
								]
							},
							"reasonCode": [
								{
									"coding": [
										{
											"system": "http://hl7.eu/fhir/ig/pcsp/CodeSystem/cs-riskcondition-eu-pcsp",
											"code": "1"
										}
									]
								}
							],
							"status": "cancelled"
						}
					},
					{
						"detail": {
							"code": {
								"coding": [
									{
										"system": "http://hl7.eu/fhir/ig/pcsp/CodeSystem/cs-recommendation-eu-pcsp",
										"code": "2"
									}
								]
							},
							"reasonCode": [
								{
									"coding": [
										{
											"system": "http://hl7.eu/fhir/ig/pcsp/CodeSystem/cs-riskcondition-eu-pcsp",
											"code": "2"
										}
									]
								}
							],
							"status": "cancelled"
						}
					},
					{
						"detail": {
							"code": {
								"coding": [
									{
										"system": "http://hl7.eu/fhir/ig/pcsp/CodeSystem/cs-recommendation-eu-pcsp",
										"code": "3"
									}
								]
							},
							"reasonCode": [
								{
									"coding": [
										{
											"system": "http://hl7.eu/fhir/ig/pcsp/CodeSystem/cs-riskcondition-eu-pcsp",
											"code": "3"
										}
									]
								}
							],
							"reasonReference": [
								{
									"reference": "Observation/79960"
								}
							],
							"status": "not-started"
						}
					},
					{
						"detail": {
							"code": {
								"coding": [
									{
										"system": "http://hl7.eu/fhir/ig/pcsp/CodeSystem/cs-recommendation-eu-pcsp",
										"code": "4"
									}
								]
							},
							"reasonCode": [
								{
									"coding": [
										{
											"system": "http://hl7.eu/fhir/ig/pcsp/CodeSystem/cs-riskcondition-eu-pcsp",
											"code": "4"
										}
									]
								}
							],
							"status": "cancelled"
						}
					},
					{
						"detail": {
							"code": {
								"coding": [
									{
										"system": "http://hl7.eu/fhir/ig/pcsp/CodeSystem/cs-recommendation-eu-pcsp",
										"code": "5"
									}
								]
							},
							"reasonCode": [
								{
									"coding": [
										{
											"system": "http://hl7.eu/fhir/ig/pcsp/CodeSystem/cs-riskcondition-eu-pcsp",
											"code": "5"
										}
									]
								}
							],
							"status": "cancelled"
						}
					},
					{
						"detail": {
							"code": {
								"coding": [
									{
										"system": "http://hl7.eu/fhir/ig/pcsp/CodeSystem/cs-recommendation-eu-pcsp",
										"code": "6"
									}
								]
							},
							"reasonCode": [
								{
									"coding": [
										{
											"system": "http://hl7.eu/fhir/ig/pcsp/CodeSystem/cs-riskcondition-eu-pcsp",
											"code": "6"
										}
									]
								}
							],
							"status": "cancelled"
						}
					},
					{
						"detail": {
							"code": {
								"coding": [
									{
										"system": "http://hl7.eu/fhir/ig/pcsp/CodeSystem/cs-recommendation-eu-pcsp",
										"code": "7"
									}
								]
							},
							"reasonCode": [
								{
									"coding": [
										{
											"system": "http://hl7.eu/fhir/ig/pcsp/CodeSystem/cs-riskcondition-eu-pcsp",
											"code": "7"
										}
									]
								}
							],
							"reasonReference": [
								{
									"reference": "Observation/79961"
								},
								{
									"reference": "Observation/78964"
								}
							],
							"status": "not-started"
						}
					},
					{
						"detail": {
							"code": {
								"coding": [
									{
										"system": "http://hl7.eu/fhir/ig/pcsp/CodeSystem/cs-recommendation-eu-pcsp",
										"code": "8"
									}
								]
							},
							"reasonCode": [
								{
									"coding": [
										{
											"system": "http://hl7.eu/fhir/ig/pcsp/CodeSystem/cs-riskcondition-eu-pcsp",
											"code": "8"
										}
									]
								}
							],
							"status": "cancelled"
						}
					},
					{
						"detail": {
							"code": {
								"coding": [
									{
										"system": "http://hl7.eu/fhir/ig/pcsp/CodeSystem/cs-recommendation-eu-pcsp",
										"code": "9"
									}
								]
							},
							"reasonCode": [
								{
									"coding": [
										{
											"system": "http://hl7.eu/fhir/ig/pcsp/CodeSystem/cs-riskcondition-eu-pcsp",
											"code": "9"
										}
									]
								}
							],
							"status": "cancelled"
						}
					},
					{
						"detail": {
							"code": {
								"coding": [
									{
										"system": "http://hl7.eu/fhir/ig/pcsp/CodeSystem/cs-recommendation-eu-pcsp",
										"code": "10"
									}
								]
							},
							"reasonCode": [
								{
									"coding": [
										{
											"system": "http://hl7.eu/fhir/ig/pcsp/CodeSystem/cs-riskcondition-eu-pcsp",
											"code": "10"
										}
									]
								}
							],
							"status": "cancelled"
						}
					},
					{
						"detail": {
							"code": {
								"coding": [
									{
										"system": "http://hl7.eu/fhir/ig/pcsp/CodeSystem/cs-recommendation-eu-pcsp",
										"code": "11"
									}
								]
							},
							"reasonCode": [
								{
									"coding": [
										{
											"system": "http://hl7.eu/fhir/ig/pcsp/CodeSystem/cs-riskcondition-eu-pcsp",
											"code": "11"
										}
									]
								}
							],
							"status": "cancelled"
						}
					},
					{
						"detail": {
							"code": {
								"coding": [
									{
										"system": "http://hl7.eu/fhir/ig/pcsp/CodeSystem/cs-recommendation-eu-pcsp",
										"code": "12"
									}
								]
							},
							"reasonCode": [
								{
									"coding": [
										{
											"system": "http://hl7.eu/fhir/ig/pcsp/CodeSystem/cs-riskcondition-eu-pcsp",
											"code": "12"
										}
									]
								}
							],
							"reasonReference": [
								{
									"reference": "Observation/79962"
								}
							],
							"status": "not-started"
						}
					},
					{
						"detail": {
							"code": {
								"coding": [
									{
										"system": "http://hl7.eu/fhir/ig/pcsp/CodeSystem/cs-recommendation-eu-pcsp",
										"code": "13"
									}
								]
							},
							"reasonCode": [
								{
									"coding": [
										{
											"system": "http://hl7.eu/fhir/ig/pcsp/CodeSystem/cs-riskcondition-eu-pcsp",
											"code": "13"
										}
									]
								}
							],
							"status": "cancelled"
						}
					},
					{
						"detail": {
							"code": {
								"coding": [
									{
										"system": "http://hl7.eu/fhir/ig/pcsp/CodeSystem/cs-recommendation-eu-pcsp",
										"code": "14"
									}
								]
							},
							"reasonCode": [
								{
									"coding": [
										{
											"system": "http://hl7.eu/fhir/ig/pcsp/CodeSystem/cs-riskcondition-eu-pcsp",
											"code": "14"
										}
									]
								}
							],
							"reasonReference": [
								{
									"reference": "Observation/78965"
								}
							],
							"status": "not-started"
						}
					},
					{
						"detail": {
							"code": {
								"coding": [
									{
										"system": "http://hl7.eu/fhir/ig/pcsp/CodeSystem/cs-recommendation-eu-pcsp",
										"code": "15"
									}
								]
							},
							"reasonCode": [
								{
									"coding": [
										{
											"system": "http://hl7.eu/fhir/ig/pcsp/CodeSystem/cs-riskcondition-eu-pcsp",
											"code": "15"
										}
									]
								}
							],
							"status": "cancelled"
						}
					},
					{
						"detail": {
							"code": {
								"coding": [
									{
										"system": "http://hl7.eu/fhir/ig/pcsp/CodeSystem/cs-recommendation-eu-pcsp",
										"code": "16"
									}
								]
							},
							"reasonCode": [
								{
									"coding": [
										{
											"system": "http://hl7.eu/fhir/ig/pcsp/CodeSystem/cs-riskcondition-eu-pcsp",
											"code": "16"
										}
									]
								}
							],
							"status": "cancelled"
						}
					},
					{
						"detail": {
							"code": {
								"coding": [
									{
										"system": "http://hl7.eu/fhir/ig/pcsp/CodeSystem/cs-recommendation-eu-pcsp",
										"code": "17"
									}
								]
							},
							"reasonCode": [
								{
									"coding": [
										{
											"system": "http://hl7.eu/fhir/ig/pcsp/CodeSystem/cs-riskcondition-eu-pcsp",
											"code": "17"
										}
									]
								}
							],
							"status": "cancelled"
						}
					},
					{
						"detail": {
							"code": {
								"coding": [
									{
										"system": "http://hl7.eu/fhir/ig/pcsp/CodeSystem/cs-recommendation-eu-pcsp",
										"code": "18"
									}
								]
							},
							"reasonCode": [
								{
									"coding": [
										{
											"system": "http://hl7.eu/fhir/ig/pcsp/CodeSystem/cs-riskcondition-eu-pcsp",
											"code": "18"
										}
									]
								}
							],
							"status": "cancelled"
						}
					},
					{
						"detail": {
							"code": {
								"coding": [
									{
										"system": "http://hl7.eu/fhir/ig/pcsp/CodeSystem/cs-recommendation-eu-pcsp",
										"code": "19"
									}
								]
							},
							"reasonCode": [
								{
									"coding": [
										{
											"system": "http://hl7.eu/fhir/ig/pcsp/CodeSystem/cs-riskcondition-eu-pcsp",
											"code": "19"
										}
									]
								}
							],
							"status": "cancelled"
						}
					},
					{
						"detail": {
							"code": {
								"coding": [
									{
										"system": "http://hl7.eu/fhir/ig/pcsp/CodeSystem/cs-recommendation-eu-pcsp",
										"code": "20"
									}
								]
							},
							"reasonCode": [
								{
									"coding": [
										{
											"system": "http://hl7.eu/fhir/ig/pcsp/CodeSystem/cs-riskcondition-eu-pcsp",
											"code": "20"
										}
									]
								}
							],
							"status": "cancelled"
						}
					},
					{
						"detail": {
							"code": {
								"coding": [
									{
										"system": "http://hl7.eu/fhir/ig/pcsp/CodeSystem/cs-recommendation-eu-pcsp",
										"code": "21"
									}
								]
							},
							"reasonCode": [
								{
									"coding": [
										{
											"system": "http://hl7.eu/fhir/ig/pcsp/CodeSystem/cs-riskcondition-eu-pcsp",
											"code": "21"
										}
									]
								}
							],
							"status": "cancelled"
						}
					},
					{
						"detail": {
							"code": {
								"coding": [
									{
										"system": "http://hl7.eu/fhir/ig/pcsp/CodeSystem/cs-recommendation-eu-pcsp",
										"code": "22"
									}
								]
							},
							"reasonCode": [
								{
									"coding": [
										{
											"system": "http://hl7.eu/fhir/ig/pcsp/CodeSystem/cs-riskcondition-eu-pcsp",
											"code": "22"
										}
									]
								}
							],
							"reasonReference": [
								{
									"reference": "Observation/79963"
								}
							],
							"status": "cancelled"
						}
					},
					{
						"detail": {
							"code": {
								"coding": [
									{
										"system": "http://hl7.eu/fhir/ig/pcsp/CodeSystem/cs-recommendation-eu-pcsp",
										"code": "23"
									}
								]
							},
							"reasonCode": [
								{
									"coding": [
										{
											"system": "http://hl7.eu/fhir/ig/pcsp/CodeSystem/cs-riskcondition-eu-pcsp",
											"code": "23"
										}
									]
								}
							],
							"status": "cancelled"
						}
					},
					{
						"detail": {
							"code": {
								"coding": [
									{
										"system": "http://hl7.eu/fhir/ig/pcsp/CodeSystem/cs-recommendation-eu-pcsp",
										"code": "24"
									}
								]
							},
							"reasonCode": [
								{
									"coding": [
										{
											"system": "http://hl7.eu/fhir/ig/pcsp/CodeSystem/cs-riskcondition-eu-pcsp",
											"code": "24"
										}
									]
								}
							],
							"status": "cancelled"
						}
					},
					{
						"detail": {
							"code": {
								"coding": [
									{
										"system": "http://hl7.eu/fhir/ig/pcsp/CodeSystem/cs-recommendation-eu-pcsp",
										"code": "25"
									}
								]
							},
							"reasonCode": [
								{
									"coding": [
										{
											"system": "http://hl7.eu/fhir/ig/pcsp/CodeSystem/cs-riskcondition-eu-pcsp",
											"code": "25"
										}
									]
								}
							],
							"status": "cancelled"
						}
					},
					{
						"detail": {
							"code": {
								"coding": [
									{
										"system": "http://hl7.eu/fhir/ig/pcsp/CodeSystem/cs-recommendation-eu-pcsp",
										"code": "26"
									}
								]
							},
							"reasonCode": [
								{
									"coding": [
										{
											"system": "http://hl7.eu/fhir/ig/pcsp/CodeSystem/cs-riskcondition-eu-pcsp",
											"code": "26"
										}
									]
								}
							],
							"reasonReference": [
								{
									"reference": "Observation/79964"
								}
							],
							"status": "not-started"
						}
					},
					{
						"detail": {
							"code": {
								"coding": [
									{
										"system": "http://hl7.eu/fhir/ig/pcsp/CodeSystem/cs-recommendation-eu-pcsp",
										"code": "27"
									}
								]
							},
							"reasonCode": [
								{
									"coding": [
										{
											"system": "http://hl7.eu/fhir/ig/pcsp/CodeSystem/cs-riskcondition-eu-pcsp",
											"code": "27"
										}
									]
								}
							],
							"reasonReference": [
								{
									"reference": "Observation/78966"
								},
								{
									"reference": "Observation/78967"
								},
								{
									"reference": "Observation/79965"
								},
								{
									"reference": "Observation/78968"
								}
							],
							"status": "not-started"
						}
					},
					{
						"detail": {
							"code": {
								"coding": [
									{
										"system": "http://hl7.eu/fhir/ig/pcsp/CodeSystem/cs-recommendation-eu-pcsp",
										"code": "28"
									}
								]
							},
							"reasonCode": [
								{
									"coding": [
										{
											"system": "http://hl7.eu/fhir/ig/pcsp/CodeSystem/cs-riskcondition-eu-pcsp",
											"code": "28"
										}
									]
								}
							],
							"reasonReference": [
								{
									"reference": "Observation/79966"
								}
							],
							"status": "not-started"
						}
					},
					{
						"detail": {
							"code": {
								"coding": [
									{
										"system": "http://hl7.eu/fhir/ig/pcsp/CodeSystem/cs-recommendation-eu-pcsp",
										"code": "29"
									}
								]
							},
							"reasonCode": [
								{
									"coding": [
										{
											"system": "http://hl7.eu/fhir/ig/pcsp/CodeSystem/cs-riskcondition-eu-pcsp",
											"code": "29"
										}
									]
								}
							],
							"reasonReference": [
								{
									"reference": "Observation/78969"
								}
							],
							"status": "not-started"
						}
					},
					{
						"detail": {
							"code": {
								"coding": [
									{
										"system": "http://hl7.eu/fhir/ig/pcsp/CodeSystem/cs-recommendation-eu-pcsp",
										"code": "30"
									}
								]
							},
							"reasonCode": [
								{
									"coding": [
										{
											"system": "http://hl7.eu/fhir/ig/pcsp/CodeSystem/cs-riskcondition-eu-pcsp",
											"code": "30"
										}
									]
								}
							],
							"reasonReference": [
								{
									"reference": "Observation/78970"
								},
								{
									"reference": "Observation/78971"
								}
							],
							"status": "not-started"
						}
					},
					{
						"detail": {
							"code": {
								"coding": [
									{
										"system": "http://hl7.eu/fhir/ig/pcsp/CodeSystem/cs-recommendation-eu-pcsp",
										"code": "31"
									}
								]
							},
							"reasonCode": [
								{
									"coding": [
										{
											"system": "http://hl7.eu/fhir/ig/pcsp/CodeSystem/cs-riskcondition-eu-pcsp",
											"code": "31"
										}
									]
								}
							],
							"status": "cancelled"
						}
					},
					{
						"detail": {
							"code": {
								"coding": [
									{
										"system": "http://hl7.eu/fhir/ig/pcsp/CodeSystem/cs-recommendation-eu-pcsp",
										"code": "32"
									}
								]
							},
							"reasonCode": [
								{
									"coding": [
										{
											"system": "http://hl7.eu/fhir/ig/pcsp/CodeSystem/cs-riskcondition-eu-pcsp",
											"code": "32"
										}
									]
								}
							],
							"status": "cancelled"
						}
					},
					{
						"detail": {
							"code": {
								"coding": [
									{
										"system": "http://hl7.eu/fhir/ig/pcsp/CodeSystem/cs-recommendation-eu-pcsp",
										"code": "33"
									}
								]
							},
							"reasonCode": [
								{
									"coding": [
										{
											"system": "http://hl7.eu/fhir/ig/pcsp/CodeSystem/cs-riskcondition-eu-pcsp",
											"code": "33"
										}
									]
								}
							],
							"reasonReference": [
								{
									"reference": "Observation/79967"
								}
							],
							"status": "not-started"
						}
					},
					{
						"detail": {
							"code": {
								"coding": [
									{
										"system": "http://hl7.eu/fhir/ig/pcsp/CodeSystem/cs-recommendation-eu-pcsp",
										"code": "34"
									}
								]
							},
							"reasonCode": [
								{
									"coding": [
										{
											"system": "http://hl7.eu/fhir/ig/pcsp/CodeSystem/cs-riskcondition-eu-pcsp",
											"code": "34"
										}
									]
								}
							],
							"reasonReference": [
								{
									"reference": "Observation/79968"
								}
							],
							"status": "not-started"
						}
					},
					{
						"detail": {
							"code": {
								"coding": [
									{
										"system": "http://hl7.eu/fhir/ig/pcsp/CodeSystem/cs-recommendation-eu-pcsp",
										"code": "35"
									}
								]
							},
							"reasonCode": [
								{
									"coding": [
										{
											"system": "http://hl7.eu/fhir/ig/pcsp/CodeSystem/cs-riskcondition-eu-pcsp",
											"code": "35"
										}
									]
								}
							],
							"status": "cancelled"
						}
					},
					{
						"detail": {
							"code": {
								"coding": [
									{
										"system": "http://hl7.eu/fhir/ig/pcsp/CodeSystem/cs-recommendation-eu-pcsp",
										"code": "36"
									}
								]
							},
							"reasonCode": [
								{
									"coding": [
										{
											"system": "http://hl7.eu/fhir/ig/pcsp/CodeSystem/cs-riskcondition-eu-pcsp",
											"code": "36"
										}
									]
								}
							],
							"status": "cancelled"
						}
					},
					{
						"detail": {
							"code": {
								"coding": [
									{
										"system": "http://hl7.eu/fhir/ig/pcsp/CodeSystem/cs-recommendation-eu-pcsp",
										"code": "37"
									}
								]
							},
							"reasonCode": [
								{
									"coding": [
										{
											"system": "http://hl7.eu/fhir/ig/pcsp/CodeSystem/cs-riskcondition-eu-pcsp",
											"code": "37"
										}
									]
								}
							],
							"status": "cancelled"
						}
					},
					{
						"detail": {
							"code": {
								"coding": [
									{
										"system": "http://hl7.eu/fhir/ig/pcsp/CodeSystem/cs-recommendation-eu-pcsp",
										"code": "38"
									}
								]
							},
							"reasonCode": [
								{
									"coding": [
										{
											"system": "http://hl7.eu/fhir/ig/pcsp/CodeSystem/cs-riskcondition-eu-pcsp",
											"code": "38"
										}
									]
								}
							],
							"reasonReference": [
								{
									"reference": "Observation/78972"
								}
							],
							"status": "not-started"
						}
					},
					{
						"detail": {
							"code": {
								"coding": [
									{
										"system": "http://hl7.eu/fhir/ig/pcsp/CodeSystem/cs-recommendation-eu-pcsp",
										"code": "39"
									}
								]
							},
							"reasonCode": [
								{
									"coding": [
										{
											"system": "http://hl7.eu/fhir/ig/pcsp/CodeSystem/cs-riskcondition-eu-pcsp",
											"code": "39"
										}
									]
								}
							],
							"reasonReference": [
								{
									"reference": "Observation/78973"
								}
							],
							"status": "not-started"
						}
					},
					{
						"detail": {
							"code": {
								"coding": [
									{
										"system": "http://hl7.eu/fhir/ig/pcsp/CodeSystem/cs-recommendation-eu-pcsp",
										"code": "40"
									}
								]
							},
							"reasonCode": [
								{
									"coding": [
										{
											"system": "http://hl7.eu/fhir/ig/pcsp/CodeSystem/cs-riskcondition-eu-pcsp",
											"code": "40"
										}
									]
								}
							],
							"status": "cancelled"
						}
					},
					{
						"detail": {
							"code": {
								"coding": [
									{
										"system": "http://hl7.eu/fhir/ig/pcsp/CodeSystem/cs-recommendation-eu-pcsp",
										"code": "41"
									}
								]
							},
							"reasonCode": [
								{
									"coding": [
										{
											"system": "http://hl7.eu/fhir/ig/pcsp/CodeSystem/cs-riskcondition-eu-pcsp",
											"code": "41"
										}
									]
								}
							],
							"reasonReference": [
								{
									"reference": "Observation/78974"
								},
								{
									"reference": "Observation/79969"
								}
							],
							"status": "not-started"
						}
					},
					{
						"detail": {
							"code": {
								"coding": [
									{
										"system": "http://hl7.eu/fhir/ig/pcsp/CodeSystem/cs-recommendation-eu-pcsp",
										"code": "42"
									}
								]
							},
							"reasonCode": [
								{
									"coding": [
										{
											"system": "http://hl7.eu/fhir/ig/pcsp/CodeSystem/cs-riskcondition-eu-pcsp",
											"code": "42"
										}
									]
								}
							],
							"reasonReference": [
								{
									"reference": "Observation/78975"
								},
								{
									"reference": "Observation/78976"
								}
							],
							"status": "not-started"
						}
					},
					{
						"detail": {
							"code": {
								"coding": [
									{
										"system": "http://hl7.eu/fhir/ig/pcsp/CodeSystem/cs-recommendation-eu-pcsp",
										"code": "43"
									}
								]
							},
							"reasonCode": [
								{
									"coding": [
										{
											"system": "http://hl7.eu/fhir/ig/pcsp/CodeSystem/cs-riskcondition-eu-pcsp",
											"code": "43"
										}
									]
								}
							],
							"reasonReference": [
								{
									"reference": "Observation/78977"
								}
							],
							"status": "not-started"
						}
					},
					{
						"detail": {
							"code": {
								"coding": [
									{
										"system": "http://hl7.eu/fhir/ig/pcsp/CodeSystem/cs-recommendation-eu-pcsp",
										"code": "44"
									}
								]
							},
							"reasonCode": [
								{
									"coding": [
										{
											"system": "http://hl7.eu/fhir/ig/pcsp/CodeSystem/cs-riskcondition-eu-pcsp",
											"code": "44"
										}
									]
								}
							],
							"status": "cancelled"
						}
					},
					{
						"detail": {
							"code": {
								"coding": [
									{
										"system": "http://hl7.eu/fhir/ig/pcsp/CodeSystem/cs-recommendation-eu-pcsp",
										"code": "45"
									}
								]
							},
							"reasonCode": [
								{
									"coding": [
										{
											"system": "http://hl7.eu/fhir/ig/pcsp/CodeSystem/cs-riskcondition-eu-pcsp",
											"code": "45"
										}
									]
								}
							],
							"status": "cancelled"
						}
					},
					{
						"detail": {
							"code": {
								"coding": [
									{
										"system": "http://hl7.eu/fhir/ig/pcsp/CodeSystem/cs-recommendation-eu-pcsp",
										"code": "46"
									}
								]
							},
							"reasonCode": [
								{
									"coding": [
										{
											"system": "http://hl7.eu/fhir/ig/pcsp/CodeSystem/cs-riskcondition-eu-pcsp",
											"code": "46"
										}
									]
								}
							],
							"status": "cancelled"
						}
					},
					{
						"detail": {
							"code": {
								"coding": [
									{
										"system": "http://hl7.eu/fhir/ig/pcsp/CodeSystem/cs-recommendation-eu-pcsp",
										"code": "47"
									}
								]
							},
							"reasonCode": [
								{
									"coding": [
										{
											"system": "http://hl7.eu/fhir/ig/pcsp/CodeSystem/cs-riskcondition-eu-pcsp",
											"code": "47"
										}
									]
								}
							],
							"status": "cancelled"
						}
					}
				],
				"note": [
					{
						"extension": [
							{
								"url": "http://hl7.eu/fhir/ig/pcsp/StructureDefinition/annotation-type",
								"valueCodeableConcept": {
									"coding": [
										{
											"system": "http://hl7.eu/fhir/ig/pcsp/CodeSystem/cs-generic-eu-pcsp",
											"code": "nar-planNotes"
										}
									]
								}
							}
						],
						"text": " Chronische nierziekte graad 2: nefrotoxische medicatie te vermijden"
					},
					{
						"extension": [
							{
								"url": "http://hl7.eu/fhir/ig/pcsp/StructureDefinition/annotation-type",
								"valueCodeableConcept": {
									"coding": [
										{
											"code": "nar-chronicCond"
										},
										{
											"system": "http://hl7.eu/fhir/ig/pcsp/CodeSystem/cs-generic-eu-pcsp"
										}
									]
								}
							}
						],
						"text": "- Chronische migraine waarvoor Exedrin, opvolging neurologie                                               \r- Gastritis en vermoedelijk oesofagitis                                                                       \r- Lymfoedeem linker been, steunkous                                                                                \r- Chronische nierziekte graad 2: nefrotoxische medicatie te vermijden"
					}
				]
			},
			"search": {
				"mode": "match"
			}
		},
		{
			"fullUrl": "https://be-fhir.survivorshippassport.org:443/fhir/MedicationAdministration/77966",
			"resource": {
				"resourceType": "MedicationAdministration",
				"id": "77966",
				"meta": {
					"versionId": "3",
					"lastUpdated": "2024-09-17T14:08:27.632+02:00",
					"source": "#MBsx84CD2IAnr2rF",
					"profile": [
						"http://hl7.eu/fhir/ig/pcsp/StructureDefinition/MedicationAdministration-eu-pcsp"
					]
				},
				"extension": [
					{
						"url": "http://hl7.eu/fhir/ig/pcsp/StructureDefinition/resource-relatedInfo",
						"valueReference": {
							"reference": "Observation/77958"
						}
					}
				],
				"identifier": [
					{
						"system": "http://hl7.eu/fhir/ig/pcsp/sid/pat-id-uzl",
						"value": "232758"
					}
				],
				"medicationCodeableConcept": {
					"coding": [
						{
							"system": "http://www.whocc.no/atc",
							"code": "L01CA02"
						}
					]
				},
				"subject": {
					"reference": "Patient/77954"
				},
				"effectivePeriod": {
					"start": "2018-11-26",
					"end": "2020-07-16"
				},
				"reasonReference": [
					{
						"reference": "Condition/77955"
					}
				]
			},
			"search": {
				"mode": "match"
			}
		},
		{
			"fullUrl": "https://be-fhir.survivorshippassport.org:443/fhir/MedicationAdministration/77965",
			"resource": {
				"resourceType": "MedicationAdministration",
				"id": "77965",
				"meta": {
					"versionId": "3",
					"lastUpdated": "2024-09-17T14:08:27.036+02:00",
					"source": "#v0u8PFsm3Qj9hZ9F",
					"profile": [
						"http://hl7.eu/fhir/ig/pcsp/StructureDefinition/MedicationAdministration-eu-pcsp"
					]
				},
				"extension": [
					{
						"url": "http://hl7.eu/fhir/ig/pcsp/StructureDefinition/resource-relatedInfo",
						"valueReference": {
							"reference": "Observation/77956"
						}
					}
				],
				"identifier": [
					{
						"system": "http://hl7.eu/fhir/ig/pcsp/sid/pat-id-uzl",
						"value": "232757"
					}
				],
				"medicationCodeableConcept": {
					"coding": [
						{
							"system": "http://www.whocc.no/atc",
							"code": "L01AA06"
						}
					]
				},
				"subject": {
					"reference": "Patient/77954"
				},
				"effectivePeriod": {
					"start": "2018-11-26",
					"end": "2020-07-16"
				},
				"reasonReference": [
					{
						"reference": "Condition/77955"
					}
				]
			},
			"search": {
				"mode": "match"
			}
		},
		{
			"fullUrl": "https://be-fhir.survivorshippassport.org:443/fhir/MedicationAdministration/77967",
			"resource": {
				"resourceType": "MedicationAdministration",
				"id": "77967",
				"meta": {
					"versionId": "3",
					"lastUpdated": "2024-09-17T14:08:28.226+02:00",
					"source": "#fnnvrTl0p4Dy3Ywc",
					"profile": [
						"http://hl7.eu/fhir/ig/pcsp/StructureDefinition/MedicationAdministration-eu-pcsp"
					]
				},
				"extension": [
					{
						"url": "http://hl7.eu/fhir/ig/pcsp/StructureDefinition/resource-relatedInfo",
						"valueReference": {
							"reference": "Observation/77959"
						}
					}
				],
				"identifier": [
					{
						"system": "http://hl7.eu/fhir/ig/pcsp/sid/pat-id-uzl",
						"value": "232759"
					}
				],
				"medicationCodeableConcept": {
					"coding": [
						{
							"system": "http://www.whocc.no/atc",
							"code": "L01CA04"
						}
					]
				},
				"subject": {
					"reference": "Patient/77954"
				},
				"effectivePeriod": {
					"start": "2018-11-26",
					"end": "2020-07-16"
				},
				"reasonReference": [
					{
						"reference": "Condition/77955"
					}
				]
			},
			"search": {
				"mode": "match"
			}
		},
		{
			"fullUrl": "https://be-fhir.survivorshippassport.org:443/fhir/Procedure/77968",
			"resource": {
				"resourceType": "Procedure",
				"id": "77968",
				"meta": {
					"versionId": "2",
					"lastUpdated": "2024-09-17T14:17:25.718+02:00",
					"source": "#QnU1Z5Tv48WVZxEq",
					"profile": [
						"http://hl7.eu/fhir/ig/pcsp/StructureDefinition/Procedure-radiotheraphy-eu-pcsp"
					]
				},
				"identifier": [
					{
						"system": "http://hl7.eu/fhir/ig/pcsp/sid/pat-id-uzl",
						"value": "232761"
					}
				],
				"category": {
					"coding": [
						{
							"system": "http://snomed.info/sct",
							"code": "108290001",
							"display": "Radiotherapy"
						}
					]
				},
				"code": {
					"coding": [
						{
							"system": "http://snomed.info/sct",
							"code": "33195004",
							"display": "External beam"
						}
					]
				},
				"subject": {
					"reference": "Patient/77954"
				},
				"performedPeriod": {
					"start": "2019-04-23",
					"end": "2019-05-24"
				},
				"reasonReference": [
					{
						"reference": "Condition/77955"
					}
				],
				"usedCode": [
					{
						"coding": [
							{
								"system": "http://hl7.eu/fhir/ig/pcsp/CodeSystem/cs-generic-eu-pcsp",
								"code": "linac-mv"
							}
						]
					}
				]
			},
			"search": {
				"mode": "match"
			}
		},
		{
			"fullUrl": "https://be-fhir.survivorshippassport.org:443/fhir/Observation/77969",
			"resource": {
				"resourceType": "Observation",
				"id": "77969",
				"meta": {
					"versionId": "2",
					"lastUpdated": "2024-09-17T14:17:26.395+02:00",
					"source": "#lcDvzNpYosAnHI6q",
					"profile": [
						"http://hl7.eu/fhir/ig/pcsp/StructureDefinition/Procedure-radiotheraphy-eu-pcsp"
					]
				},
				"identifier": [
					{
						"system": "http://hl7.eu/fhir/ig/pcsp/sid/pat-id-uzl",
						"value": "232760"
					}
				],
				"category": [
					{
						"coding": [
							{
								"system": "http://terminology.hl7.org/CodeSystem/observation-category",
								"code": "procedure"
							}
						]
					}
				],
				"code": {
					"coding": [
						{
							"system": "http://hl7.eu/fhir/ig/pcsp/ValueSet/vs-radiotherapyDoseType-eu-pcsp",
							"code": "445461008"
						}
					]
				},
				"subject": {
					"reference": "Patient/77954"
				},
				"valueQuantity": {
					"value": 41.4,
					"system": "http://unitsofmeasure.org",
					"code": "Gy"
				}
			},
			"search": {
				"mode": "match"
			}
		},
		{
			"fullUrl": "https://be-fhir.survivorshippassport.org:443/fhir/Procedure/77970",
			"resource": {
				"resourceType": "Procedure",
				"id": "77970",
				"meta": {
					"versionId": "5",
					"lastUpdated": "2024-09-17T14:50:29.104+02:00",
					"source": "#dFLkVjIDWr7jIr4O",
					"profile": [
						"http://hl7.eu/fhir/ig/pcsp/StructureDefinition/Procedure-radiotheraphy-eu-pcsp"
					]
				},
				"extension": [
					{
						"url": "extensionTiming",
						"valueTiming": {
							"repeat": {
								"count": 1
							}
						}
					},
					{
						"url": "http://hl7.eu/fhir/ig/pcsp/StructureDefinition/procedure-performedTiming",
						"valueTiming": {
							"repeat": {
								"count": 23
							}
						}
					},
					{
						"url": "http://hl7.eu/fhir/ig/pcsp/StructureDefinition/resource-relatedInfo",
						"valueReference": {
							"reference": "Observation/77969"
						}
					}
				],
				"identifier": [
					{
						"system": "http://hl7.eu/fhir/ig/pcsp/sid/pat-id-uzl",
						"value": "232762"
					}
				],
				"partOf": [
					{
						"reference": "Procedure/77968"
					}
				],
				"category": {
					"coding": [
						{
							"system": "http://snomed.info/sct",
							"code": "108290001",
							"display": "Radiotherapy"
						}
					]
				},
				"code": {
					"coding": [
						{
							"system": "http://snomed.info/sct",
							"code": "33195004",
							"display": "External beam"
						}
					]
				},
				"subject": {
					"reference": "Patient/77954"
				},
				"reasonReference": [
					{
						"reference": "Condition/77955"
					}
				],
				"bodySite": [
					{
						"coding": [
							{
								"system": "http://hl7.eu/fhir/ig/pcsp/CodeSystem/cs-radiotherapy-pcsp"
							}
						]
					},
					{
						"coding": [
							{
								"system": "http://hl7.eu/fhir/ig/pcsp/CodeSystem/cs-radiotherapy-pcsp",
								"code": "11.9.R"
							}
						]
					},
					{
						"text": "Bestraling uit op de liesstreek rechts (inguinaal) tot een totale dosis van 41.4 Gy in 23 fracties van 1.8 Gy. Tegelijkertijd chemotherapie (Ifosfamide, Vincristine)"
					},
					{
						"coding": [
							{
								"system": "http://hl7.eu/fhir/ig/pcsp/CodeSystem/cs-radiotherapy-pcsp",
								"code": "11.8.L"
							}
						]
					},
					{
						"text": "Bestraling op de liesstreek (inguinaal) tot een totale dosis van 41.4 Gy in 23 fracties van 1.8 Gy. Tegelijkertijd chemotherapie (Ifosfamide, Vincristine)"
					}
				]
			},
			"search": {
				"mode": "match"
			}
		},
		{
			"fullUrl": "https://be-fhir.survivorshippassport.org:443/fhir/Procedure/77971",
			"resource": {
				"resourceType": "Procedure",
				"id": "77971",
				"meta": {
					"versionId": "3",
					"lastUpdated": "2024-09-17T14:45:33.508+02:00",
					"source": "#CjN9ASvh5Hw9pCT9",
					"profile": [
						"http://hl7.eu/fhir/ig/pcsp/StructureDefinition/Procedure-surgery-eu-pcsp"
					]
				},
				"text": {
					"div": "<div xmlns=\"http://www.w3.org/1999/xhtml\">Inguinaal klierevidement links</div>"
				},
				"identifier": [
					{
						"system": "http://hl7.eu/fhir/ig/pcsp/sid/pat-id-uzl",
						"value": "232763"
					}
				],
				"category": {
					"coding": [
						{
							"system": "http://snomed.info/sct",
							"code": "387713003"
						}
					]
				},
				"subject": {
					"reference": "Patient/77954"
				},
				"performedDateTime": "2019-02-20",
				"reasonReference": [
					{
						"reference": "Condition/77955"
					}
				]
			},
			"search": {
				"mode": "match"
			}
		},
		{
			"fullUrl": "https://be-fhir.survivorshippassport.org:443/fhir/Procedure/77972",
			"resource": {
				"resourceType": "Procedure",
				"id": "77972",
				"meta": {
					"versionId": "1",
					"lastUpdated": "2024-09-17T11:57:27.024+02:00",
					"source": "#uNFy4EuLgr5kzY6g",
					"profile": [
						"http://hl7.eu/fhir/ig/pcsp/StructureDefinition/Procedure-surgery-eu-pcsp"
					]
				},
				"text": {
					"div": "<div xmlns=\"http://www.w3.org/1999/xhtml\">Inguinaal klierevidement links.</div>"
				},
				"identifier": [
					{
						"system": "http://hl7.eu/fhir/ig/pcsp/sid/pat-id-uzl",
						"value": "232763"
					}
				],
				"category": {
					"coding": [
						{
							"system": "http://snomed.info/sct",
							"code": "387713003"
						}
					]
				},
				"subject": {
					"reference": "Patient/77954"
				},
				"performedDateTime": "2019-02-20T00:00:00+01:00",
				"reasonReference": [
					{
						"reference": "Condition/77955"
					}
				]
			},
			"search": {
				"mode": "match"
			}
		},
		{
			"fullUrl": "https://be-fhir.survivorshippassport.org:443/fhir/Procedure/77973",
			"resource": {
				"resourceType": "Procedure",
				"id": "77973",
				"meta": {
					"versionId": "3",
					"lastUpdated": "2024-09-17T14:05:10.342+02:00",
					"source": "#QCbx6RveYzVlnZt6",
					"profile": [
						"http://hl7.eu/fhir/ig/pcsp/StructureDefinition/PlanDefinition-flt-eu-pcsp"
					]
				},
				"identifier": [
					{
						"system": "http://hl7.eu/fhir/ig/pcsp/sid/pat-id-uzl",
						"value": "232764"
					}
				],
				"instantiatesCanonical": [
					"https://be-fhir.survivorshippassport.org/fhir/PlanDefinition/77974"
				],
				"category": {
					"coding": [
						{
							"system": "http://snomed.info/sct",
							"code": "708255002",
							"display": "First line treatment"
						}
					]
				},
				"subject": {
					"reference": "Patient/77954"
				},
				"performedPeriod": {
					"end": "2020-07-16"
				},
				"reasonReference": [
					{
						"reference": "Condition/77955"
					}
				],
				"outcome": {
					"coding": [
						{
							"system": "http://terminology.hl7.org/CodeSystem/condition-clinical",
							"code": "inactive"
						}
					]
				}
			},
			"search": {
				"mode": "match"
			}
		},
		{
			"fullUrl": "https://be-fhir.survivorshippassport.org:443/fhir/Composition/78978",
			"resource": {
				"resourceType": "Composition",
				"id": "78978",
				"meta": {
					"versionId": "1",
					"lastUpdated": "2024-09-19T11:40:44.890+02:00",
					"source": "#FDYbrnZmruBj68kz"
				},
				"type": {
					"coding": [
						{
							"system": "http://hl7.eu/fhir/ig/pcsp/CodeSystem/cs-generic-eu-pcsp",
							"code": "surpass"
						}
					]
				},
				"subject": {
					"reference": "Patient/77954"
				},
				"date": "2024-09-19",
				"title": "Childhood Cancer Survivor Passport",
				"section": [
					{
						"title": "Care Plan",
						"code": {
							"coding": [
								{
									"system": "http://loinc.org",
									"code": "18776-5"
								}
							]
						},
						"entry": [
							{
								"reference": "CarePlan/79958"
							},
							{
								"reference": "DocumentReference/79959"
							}
						]
					},
					{
						"title": "Diagnosis",
						"code": {
							"coding": [
								{
									"system": "http://loinc.org",
									"code": "72135-7"
								}
							]
						},
						"entry": [
							{
								"reference": "Condition/77955"
							},
							{
								"reference": "Procedure/77973"
							}
						],
						"section": [
							{
								"title": "Chemotherapy",
								"code": {
									"coding": [
										{
											"system": "http://loinc.org",
											"code": "11486-8"
										}
									]
								},
								"entry": [
									{
										"reference": "MedicationAdministration/77962"
									},
									{
										"reference": "MedicationAdministration/77963"
									},
									{
										"reference": "MedicationAdministration/77964"
									},
									{
										"reference": "MedicationAdministration/77965"
									},
									{
										"reference": "MedicationAdministration/77966"
									},
									{
										"reference": "MedicationAdministration/77967"
									}
								]
							},
							{
								"title": "Radiation Therapy Episode",
								"code": {
									"coding": [
										{
											"system": "http://hl7.eu/fhir/ig/pcsp/CodeSystem/cs-generic-eu-pcsp",
											"code": "section-rt"
										}
									]
								},
								"entry": [
									{
										"reference": "Procedure/77968"
									},
									{
										"reference": "Procedure/77970"
									}
								]
							},
							{
								"title": "Major Surgery",
								"code": {
									"coding": [
										{
											"system": "http://loinc.org",
											"code": "8690-0"
										}
									]
								},
								"entry": [
									{
										"reference": "Procedure/77971"
									}
								]
							},
							{
								"title": "Other relevant clinical information and events",
								"code": {
									"coding": [
										{
											"system": "http://hl7.eu/fhir/ig/pcsp/CodeSystem/cs-generic-eu-pcsp",
											"code": "section-otherInfos"
										}
									]
								},
								"entry": [
									{
										"reference": "Condition/77975"
									},
									{
										"reference": "Procedure/78003"
									},
									{
										"reference": "Procedure/77976"
									}
								]
							}
						]
					}
				]
			},
			"search": {
				"mode": "match"
			}
		},
		{
			"fullUrl": "https://be-fhir.survivorshippassport.org:443/fhir/CarePlan/79998",
			"resource": {
				"resourceType": "CarePlan",
				"id": "79998",
				"meta": {
					"versionId": "2",
					"lastUpdated": "2024-09-24T08:26:27.394+02:00",
					"source": "#yB1OoMGTjsifipvP"
				},
				"subject": {
					"reference": "Patient/77954"
				},
				"created": "2024-09-24",
				"addresses": [
					{
						"reference": "Condition/77955"
					}
				],
				"activity": [
					{
						"detail": {
							"code": {
								"coding": [
									{
										"system": "http://hl7.eu/fhir/ig/pcsp/CodeSystem/cs-recommendation-eu-pcsp",
										"code": "42"
									}
								]
							},
							"reasonCode": [
								{
									"coding": [
										{
											"system": "http://hl7.eu/fhir/ig/pcsp/CodeSystem/cs-riskcondition-eu-pcsp",
											"code": "42"
										}
									]
								}
							],
							"reasonReference": [
								{
									"reference": "Observation/81957"
								},
								{
									"reference": "Observation/80975"
								}
							],
							"status": "not-started",
							"description": "Blaas kreeg wat dosis maar niet de volledige blaas"
						}
					},
					{
						"detail": {
							"code": {
								"coding": [
									{
										"system": "http://hl7.eu/fhir/ig/pcsp/CodeSystem/cs-recommendation-eu-pcsp",
										"code": "1"
									}
								]
							},
							"reasonCode": [
								{
									"coding": [
										{
											"system": "http://hl7.eu/fhir/ig/pcsp/CodeSystem/cs-riskcondition-eu-pcsp",
											"code": "1"
										}
									]
								}
							],
							"status": "cancelled"
						}
					},
					{
						"detail": {
							"code": {
								"coding": [
									{
										"system": "http://hl7.eu/fhir/ig/pcsp/CodeSystem/cs-recommendation-eu-pcsp",
										"code": "2"
									}
								]
							},
							"reasonCode": [
								{
									"coding": [
										{
											"system": "http://hl7.eu/fhir/ig/pcsp/CodeSystem/cs-riskcondition-eu-pcsp",
											"code": "2"
										}
									]
								}
							],
							"status": "cancelled"
						}
					},
					{
						"detail": {
							"code": {
								"coding": [
									{
										"system": "http://hl7.eu/fhir/ig/pcsp/CodeSystem/cs-recommendation-eu-pcsp",
										"code": "3"
									}
								]
							},
							"reasonCode": [
								{
									"coding": [
										{
											"system": "http://hl7.eu/fhir/ig/pcsp/CodeSystem/cs-riskcondition-eu-pcsp",
											"code": "3"
										}
									]
								}
							],
							"reasonReference": [
								{
									"reference": "Observation/80964"
								}
							],
							"status": "not-started"
						}
					},
					{
						"detail": {
							"code": {
								"coding": [
									{
										"system": "http://hl7.eu/fhir/ig/pcsp/CodeSystem/cs-recommendation-eu-pcsp",
										"code": "4"
									}
								]
							},
							"reasonCode": [
								{
									"coding": [
										{
											"system": "http://hl7.eu/fhir/ig/pcsp/CodeSystem/cs-riskcondition-eu-pcsp",
											"code": "4"
										}
									]
								}
							],
							"status": "cancelled"
						}
					},
					{
						"detail": {
							"code": {
								"coding": [
									{
										"system": "http://hl7.eu/fhir/ig/pcsp/CodeSystem/cs-recommendation-eu-pcsp",
										"code": "5"
									}
								]
							},
							"reasonCode": [
								{
									"coding": [
										{
											"system": "http://hl7.eu/fhir/ig/pcsp/CodeSystem/cs-riskcondition-eu-pcsp",
											"code": "5"
										}
									]
								}
							],
							"status": "cancelled"
						}
					},
					{
						"detail": {
							"code": {
								"coding": [
									{
										"system": "http://hl7.eu/fhir/ig/pcsp/CodeSystem/cs-recommendation-eu-pcsp",
										"code": "6"
									}
								]
							},
							"reasonCode": [
								{
									"coding": [
										{
											"system": "http://hl7.eu/fhir/ig/pcsp/CodeSystem/cs-riskcondition-eu-pcsp",
											"code": "6"
										}
									]
								}
							],
							"status": "cancelled"
						}
					},
					{
						"detail": {
							"code": {
								"coding": [
									{
										"system": "http://hl7.eu/fhir/ig/pcsp/CodeSystem/cs-recommendation-eu-pcsp",
										"code": "7"
									}
								]
							},
							"reasonCode": [
								{
									"coding": [
										{
											"system": "http://hl7.eu/fhir/ig/pcsp/CodeSystem/cs-riskcondition-eu-pcsp",
											"code": "7"
										}
									]
								}
							],
							"reasonReference": [
								{
									"reference": "Observation/80965"
								},
								{
									"reference": "Observation/79999"
								}
							],
							"status": "not-started"
						}
					},
					{
						"detail": {
							"code": {
								"coding": [
									{
										"system": "http://hl7.eu/fhir/ig/pcsp/CodeSystem/cs-recommendation-eu-pcsp",
										"code": "8"
									}
								]
							},
							"reasonCode": [
								{
									"coding": [
										{
											"system": "http://hl7.eu/fhir/ig/pcsp/CodeSystem/cs-riskcondition-eu-pcsp",
											"code": "8"
										}
									]
								}
							],
							"status": "cancelled"
						}
					},
					{
						"detail": {
							"code": {
								"coding": [
									{
										"system": "http://hl7.eu/fhir/ig/pcsp/CodeSystem/cs-recommendation-eu-pcsp",
										"code": "9"
									}
								]
							},
							"reasonCode": [
								{
									"coding": [
										{
											"system": "http://hl7.eu/fhir/ig/pcsp/CodeSystem/cs-riskcondition-eu-pcsp",
											"code": "9"
										}
									]
								}
							],
							"status": "cancelled"
						}
					},
					{
						"detail": {
							"code": {
								"coding": [
									{
										"system": "http://hl7.eu/fhir/ig/pcsp/CodeSystem/cs-recommendation-eu-pcsp",
										"code": "10"
									}
								]
							},
							"reasonCode": [
								{
									"coding": [
										{
											"system": "http://hl7.eu/fhir/ig/pcsp/CodeSystem/cs-riskcondition-eu-pcsp",
											"code": "10"
										}
									]
								}
							],
							"status": "cancelled"
						}
					},
					{
						"detail": {
							"code": {
								"coding": [
									{
										"system": "http://hl7.eu/fhir/ig/pcsp/CodeSystem/cs-recommendation-eu-pcsp",
										"code": "11"
									}
								]
							},
							"reasonCode": [
								{
									"coding": [
										{
											"system": "http://hl7.eu/fhir/ig/pcsp/CodeSystem/cs-riskcondition-eu-pcsp",
											"code": "11"
										}
									]
								}
							],
							"status": "cancelled"
						}
					},
					{
						"detail": {
							"code": {
								"coding": [
									{
										"system": "http://hl7.eu/fhir/ig/pcsp/CodeSystem/cs-recommendation-eu-pcsp",
										"code": "12"
									}
								]
							},
							"reasonCode": [
								{
									"coding": [
										{
											"system": "http://hl7.eu/fhir/ig/pcsp/CodeSystem/cs-riskcondition-eu-pcsp",
											"code": "12"
										}
									]
								}
							],
							"reasonReference": [
								{
									"reference": "Observation/80966"
								}
							],
							"status": "not-started"
						}
					},
					{
						"detail": {
							"code": {
								"coding": [
									{
										"system": "http://hl7.eu/fhir/ig/pcsp/CodeSystem/cs-recommendation-eu-pcsp",
										"code": "13"
									}
								]
							},
							"reasonCode": [
								{
									"coding": [
										{
											"system": "http://hl7.eu/fhir/ig/pcsp/CodeSystem/cs-riskcondition-eu-pcsp",
											"code": "13"
										}
									]
								}
							],
							"status": "cancelled"
						}
					},
					{
						"detail": {
							"code": {
								"coding": [
									{
										"system": "http://hl7.eu/fhir/ig/pcsp/CodeSystem/cs-recommendation-eu-pcsp",
										"code": "14"
									}
								]
							},
							"reasonCode": [
								{
									"coding": [
										{
											"system": "http://hl7.eu/fhir/ig/pcsp/CodeSystem/cs-riskcondition-eu-pcsp",
											"code": "14"
										}
									]
								}
							],
							"reasonReference": [
								{
									"reference": "Observation/80000"
								}
							],
							"status": "not-started"
						}
					},
					{
						"detail": {
							"code": {
								"coding": [
									{
										"system": "http://hl7.eu/fhir/ig/pcsp/CodeSystem/cs-recommendation-eu-pcsp",
										"code": "15"
									}
								]
							},
							"reasonCode": [
								{
									"coding": [
										{
											"system": "http://hl7.eu/fhir/ig/pcsp/CodeSystem/cs-riskcondition-eu-pcsp",
											"code": "15"
										}
									]
								}
							],
							"status": "cancelled"
						}
					},
					{
						"detail": {
							"code": {
								"coding": [
									{
										"system": "http://hl7.eu/fhir/ig/pcsp/CodeSystem/cs-recommendation-eu-pcsp",
										"code": "16"
									}
								]
							},
							"reasonCode": [
								{
									"coding": [
										{
											"system": "http://hl7.eu/fhir/ig/pcsp/CodeSystem/cs-riskcondition-eu-pcsp",
											"code": "16"
										}
									]
								}
							],
							"status": "cancelled"
						}
					},
					{
						"detail": {
							"code": {
								"coding": [
									{
										"system": "http://hl7.eu/fhir/ig/pcsp/CodeSystem/cs-recommendation-eu-pcsp",
										"code": "17"
									}
								]
							},
							"reasonCode": [
								{
									"coding": [
										{
											"system": "http://hl7.eu/fhir/ig/pcsp/CodeSystem/cs-riskcondition-eu-pcsp",
											"code": "17"
										}
									]
								}
							],
							"status": "cancelled"
						}
					},
					{
						"detail": {
							"code": {
								"coding": [
									{
										"system": "http://hl7.eu/fhir/ig/pcsp/CodeSystem/cs-recommendation-eu-pcsp",
										"code": "18"
									}
								]
							},
							"reasonCode": [
								{
									"coding": [
										{
											"system": "http://hl7.eu/fhir/ig/pcsp/CodeSystem/cs-riskcondition-eu-pcsp",
											"code": "18"
										}
									]
								}
							],
							"status": "cancelled"
						}
					},
					{
						"detail": {
							"code": {
								"coding": [
									{
										"system": "http://hl7.eu/fhir/ig/pcsp/CodeSystem/cs-recommendation-eu-pcsp",
										"code": "19"
									}
								]
							},
							"reasonCode": [
								{
									"coding": [
										{
											"system": "http://hl7.eu/fhir/ig/pcsp/CodeSystem/cs-riskcondition-eu-pcsp",
											"code": "19"
										}
									]
								}
							],
							"status": "cancelled"
						}
					},
					{
						"detail": {
							"code": {
								"coding": [
									{
										"system": "http://hl7.eu/fhir/ig/pcsp/CodeSystem/cs-recommendation-eu-pcsp",
										"code": "20"
									}
								]
							},
							"reasonCode": [
								{
									"coding": [
										{
											"system": "http://hl7.eu/fhir/ig/pcsp/CodeSystem/cs-riskcondition-eu-pcsp",
											"code": "20"
										}
									]
								}
							],
							"status": "cancelled"
						}
					},
					{
						"detail": {
							"code": {
								"coding": [
									{
										"system": "http://hl7.eu/fhir/ig/pcsp/CodeSystem/cs-recommendation-eu-pcsp",
										"code": "21"
									}
								]
							},
							"reasonCode": [
								{
									"coding": [
										{
											"system": "http://hl7.eu/fhir/ig/pcsp/CodeSystem/cs-riskcondition-eu-pcsp",
											"code": "21"
										}
									]
								}
							],
							"status": "cancelled"
						}
					},
					{
						"detail": {
							"code": {
								"coding": [
									{
										"system": "http://hl7.eu/fhir/ig/pcsp/CodeSystem/cs-recommendation-eu-pcsp",
										"code": "22"
									}
								]
							},
							"reasonCode": [
								{
									"coding": [
										{
											"system": "http://hl7.eu/fhir/ig/pcsp/CodeSystem/cs-riskcondition-eu-pcsp",
											"code": "22"
										}
									]
								}
							],
							"reasonReference": [
								{
									"reference": "Observation/80001"
								}
							],
							"status": "cancelled"
						}
					},
					{
						"detail": {
							"code": {
								"coding": [
									{
										"system": "http://hl7.eu/fhir/ig/pcsp/CodeSystem/cs-recommendation-eu-pcsp",
										"code": "23"
									}
								]
							},
							"reasonCode": [
								{
									"coding": [
										{
											"system": "http://hl7.eu/fhir/ig/pcsp/CodeSystem/cs-riskcondition-eu-pcsp",
											"code": "23"
										}
									]
								}
							],
							"status": "cancelled"
						}
					},
					{
						"detail": {
							"code": {
								"coding": [
									{
										"system": "http://hl7.eu/fhir/ig/pcsp/CodeSystem/cs-recommendation-eu-pcsp",
										"code": "24"
									}
								]
							},
							"reasonCode": [
								{
									"coding": [
										{
											"system": "http://hl7.eu/fhir/ig/pcsp/CodeSystem/cs-riskcondition-eu-pcsp",
											"code": "24"
										}
									]
								}
							],
							"status": "cancelled"
						}
					},
					{
						"detail": {
							"code": {
								"coding": [
									{
										"system": "http://hl7.eu/fhir/ig/pcsp/CodeSystem/cs-recommendation-eu-pcsp",
										"code": "25"
									}
								]
							},
							"reasonCode": [
								{
									"coding": [
										{
											"system": "http://hl7.eu/fhir/ig/pcsp/CodeSystem/cs-riskcondition-eu-pcsp",
											"code": "25"
										}
									]
								}
							],
							"status": "cancelled"
						}
					},
					{
						"detail": {
							"code": {
								"coding": [
									{
										"system": "http://hl7.eu/fhir/ig/pcsp/CodeSystem/cs-recommendation-eu-pcsp",
										"code": "26"
									}
								]
							},
							"reasonCode": [
								{
									"coding": [
										{
											"system": "http://hl7.eu/fhir/ig/pcsp/CodeSystem/cs-riskcondition-eu-pcsp",
											"code": "26"
										}
									]
								}
							],
							"reasonReference": [
								{
									"reference": "Observation/80967"
								}
							],
							"status": "cancelled"
						}
					},
					{
						"detail": {
							"code": {
								"coding": [
									{
										"system": "http://hl7.eu/fhir/ig/pcsp/CodeSystem/cs-recommendation-eu-pcsp",
										"code": "27"
									}
								]
							},
							"reasonCode": [
								{
									"coding": [
										{
											"system": "http://hl7.eu/fhir/ig/pcsp/CodeSystem/cs-riskcondition-eu-pcsp",
											"code": "27"
										}
									]
								}
							],
							"reasonReference": [
								{
									"reference": "Observation/80968"
								},
								{
									"reference": "Observation/81952"
								},
								{
									"reference": "Observation/80969"
								}
							],
							"status": "not-started"
						}
					},
					{
						"detail": {
							"code": {
								"coding": [
									{
										"system": "http://hl7.eu/fhir/ig/pcsp/CodeSystem/cs-recommendation-eu-pcsp",
										"code": "28"
									}
								]
							},
							"reasonCode": [
								{
									"coding": [
										{
											"system": "http://hl7.eu/fhir/ig/pcsp/CodeSystem/cs-riskcondition-eu-pcsp",
											"code": "28"
										}
									]
								}
							],
							"reasonReference": [
								{
									"reference": "Observation/80970"
								}
							],
							"status": "cancelled"
						}
					},
					{
						"detail": {
							"code": {
								"coding": [
									{
										"system": "http://hl7.eu/fhir/ig/pcsp/CodeSystem/cs-recommendation-eu-pcsp",
										"code": "29"
									}
								]
							},
							"reasonCode": [
								{
									"coding": [
										{
											"system": "http://hl7.eu/fhir/ig/pcsp/CodeSystem/cs-riskcondition-eu-pcsp",
											"code": "29"
										}
									]
								}
							],
							"reasonReference": [
								{
									"reference": "Observation/81953"
								}
							],
							"status": "not-started"
						}
					},
					{
						"detail": {
							"code": {
								"coding": [
									{
										"system": "http://hl7.eu/fhir/ig/pcsp/CodeSystem/cs-recommendation-eu-pcsp",
										"code": "30"
									}
								]
							},
							"reasonCode": [
								{
									"coding": [
										{
											"system": "http://hl7.eu/fhir/ig/pcsp/CodeSystem/cs-riskcondition-eu-pcsp",
											"code": "30"
										}
									]
								}
							],
							"reasonReference": [
								{
									"reference": "Observation/80971"
								}
							],
							"status": "cancelled"
						}
					},
					{
						"detail": {
							"code": {
								"coding": [
									{
										"system": "http://hl7.eu/fhir/ig/pcsp/CodeSystem/cs-recommendation-eu-pcsp",
										"code": "31"
									}
								]
							},
							"reasonCode": [
								{
									"coding": [
										{
											"system": "http://hl7.eu/fhir/ig/pcsp/CodeSystem/cs-riskcondition-eu-pcsp",
											"code": "31"
										}
									]
								}
							],
							"status": "cancelled"
						}
					},
					{
						"detail": {
							"code": {
								"coding": [
									{
										"system": "http://hl7.eu/fhir/ig/pcsp/CodeSystem/cs-recommendation-eu-pcsp",
										"code": "32"
									}
								]
							},
							"reasonCode": [
								{
									"coding": [
										{
											"system": "http://hl7.eu/fhir/ig/pcsp/CodeSystem/cs-riskcondition-eu-pcsp",
											"code": "32"
										}
									]
								}
							],
							"status": "cancelled"
						}
					},
					{
						"detail": {
							"code": {
								"coding": [
									{
										"system": "http://hl7.eu/fhir/ig/pcsp/CodeSystem/cs-recommendation-eu-pcsp",
										"code": "33"
									}
								]
							},
							"reasonCode": [
								{
									"coding": [
										{
											"system": "http://hl7.eu/fhir/ig/pcsp/CodeSystem/cs-riskcondition-eu-pcsp",
											"code": "33"
										}
									]
								}
							],
							"reasonReference": [
								{
									"reference": "Observation/80972"
								}
							],
							"status": "not-started"
						}
					},
					{
						"detail": {
							"code": {
								"coding": [
									{
										"system": "http://hl7.eu/fhir/ig/pcsp/CodeSystem/cs-recommendation-eu-pcsp",
										"code": "34"
									}
								]
							},
							"reasonCode": [
								{
									"coding": [
										{
											"system": "http://hl7.eu/fhir/ig/pcsp/CodeSystem/cs-riskcondition-eu-pcsp",
											"code": "34"
										}
									]
								}
							],
							"reasonReference": [
								{
									"reference": "Observation/81954"
								}
							],
							"status": "not-started"
						}
					},
					{
						"detail": {
							"code": {
								"coding": [
									{
										"system": "http://hl7.eu/fhir/ig/pcsp/CodeSystem/cs-recommendation-eu-pcsp",
										"code": "35"
									}
								]
							},
							"reasonCode": [
								{
									"coding": [
										{
											"system": "http://hl7.eu/fhir/ig/pcsp/CodeSystem/cs-riskcondition-eu-pcsp",
											"code": "35"
										}
									]
								}
							],
							"status": "cancelled"
						}
					},
					{
						"detail": {
							"code": {
								"coding": [
									{
										"system": "http://hl7.eu/fhir/ig/pcsp/CodeSystem/cs-recommendation-eu-pcsp",
										"code": "36"
									}
								]
							},
							"reasonCode": [
								{
									"coding": [
										{
											"system": "http://hl7.eu/fhir/ig/pcsp/CodeSystem/cs-riskcondition-eu-pcsp",
											"code": "36"
										}
									]
								}
							],
							"status": "cancelled"
						}
					},
					{
						"detail": {
							"code": {
								"coding": [
									{
										"system": "http://hl7.eu/fhir/ig/pcsp/CodeSystem/cs-recommendation-eu-pcsp",
										"code": "37"
									}
								]
							},
							"reasonCode": [
								{
									"coding": [
										{
											"system": "http://hl7.eu/fhir/ig/pcsp/CodeSystem/cs-riskcondition-eu-pcsp",
											"code": "37"
										}
									]
								}
							],
							"status": "cancelled"
						}
					},
					{
						"detail": {
							"code": {
								"coding": [
									{
										"system": "http://hl7.eu/fhir/ig/pcsp/CodeSystem/cs-recommendation-eu-pcsp",
										"code": "38"
									}
								]
							},
							"reasonCode": [
								{
									"coding": [
										{
											"system": "http://hl7.eu/fhir/ig/pcsp/CodeSystem/cs-riskcondition-eu-pcsp",
											"code": "38"
										}
									]
								}
							],
							"reasonReference": [
								{
									"reference": "Observation/81955"
								}
							],
							"status": "not-started"
						}
					},
					{
						"detail": {
							"code": {
								"coding": [
									{
										"system": "http://hl7.eu/fhir/ig/pcsp/CodeSystem/cs-recommendation-eu-pcsp",
										"code": "39"
									}
								]
							},
							"reasonCode": [
								{
									"coding": [
										{
											"system": "http://hl7.eu/fhir/ig/pcsp/CodeSystem/cs-riskcondition-eu-pcsp",
											"code": "39"
										}
									]
								}
							],
							"reasonReference": [
								{
									"reference": "Observation/80973"
								}
							],
							"status": "cancelled"
						}
					},
					{
						"detail": {
							"code": {
								"coding": [
									{
										"system": "http://hl7.eu/fhir/ig/pcsp/CodeSystem/cs-recommendation-eu-pcsp",
										"code": "40"
									}
								]
							},
							"reasonCode": [
								{
									"coding": [
										{
											"system": "http://hl7.eu/fhir/ig/pcsp/CodeSystem/cs-riskcondition-eu-pcsp",
											"code": "40"
										}
									]
								}
							],
							"status": "cancelled"
						}
					},
					{
						"detail": {
							"code": {
								"coding": [
									{
										"system": "http://hl7.eu/fhir/ig/pcsp/CodeSystem/cs-recommendation-eu-pcsp",
										"code": "41"
									}
								]
							},
							"reasonCode": [
								{
									"coding": [
										{
											"system": "http://hl7.eu/fhir/ig/pcsp/CodeSystem/cs-riskcondition-eu-pcsp",
											"code": "41"
										}
									]
								}
							],
							"reasonReference": [
								{
									"reference": "Observation/80974"
								},
								{
									"reference": "Observation/81956"
								}
							],
							"status": "not-started"
						}
					},
					{
						"detail": {
							"code": {
								"coding": [
									{
										"system": "http://hl7.eu/fhir/ig/pcsp/CodeSystem/cs-recommendation-eu-pcsp",
										"code": "43"
									}
								]
							},
							"reasonCode": [
								{
									"coding": [
										{
											"system": "http://hl7.eu/fhir/ig/pcsp/CodeSystem/cs-riskcondition-eu-pcsp",
											"code": "43"
										}
									]
								}
							],
							"reasonReference": [
								{
									"reference": "Observation/81958"
								}
							],
							"status": "not-started"
						}
					},
					{
						"detail": {
							"code": {
								"coding": [
									{
										"system": "http://hl7.eu/fhir/ig/pcsp/CodeSystem/cs-recommendation-eu-pcsp",
										"code": "44"
									}
								]
							},
							"reasonCode": [
								{
									"coding": [
										{
											"system": "http://hl7.eu/fhir/ig/pcsp/CodeSystem/cs-riskcondition-eu-pcsp",
											"code": "44"
										}
									]
								}
							],
							"status": "cancelled"
						}
					},
					{
						"detail": {
							"code": {
								"coding": [
									{
										"system": "http://hl7.eu/fhir/ig/pcsp/CodeSystem/cs-recommendation-eu-pcsp",
										"code": "45"
									}
								]
							},
							"reasonCode": [
								{
									"coding": [
										{
											"system": "http://hl7.eu/fhir/ig/pcsp/CodeSystem/cs-riskcondition-eu-pcsp",
											"code": "45"
										}
									]
								}
							],
							"status": "cancelled"
						}
					},
					{
						"detail": {
							"code": {
								"coding": [
									{
										"system": "http://hl7.eu/fhir/ig/pcsp/CodeSystem/cs-recommendation-eu-pcsp",
										"code": "46"
									}
								]
							},
							"reasonCode": [
								{
									"coding": [
										{
											"system": "http://hl7.eu/fhir/ig/pcsp/CodeSystem/cs-riskcondition-eu-pcsp",
											"code": "46"
										}
									]
								}
							],
							"status": "cancelled"
						}
					},
					{
						"detail": {
							"code": {
								"coding": [
									{
										"system": "http://hl7.eu/fhir/ig/pcsp/CodeSystem/cs-recommendation-eu-pcsp",
										"code": "47"
									}
								]
							},
							"reasonCode": [
								{
									"coding": [
										{
											"system": "http://hl7.eu/fhir/ig/pcsp/CodeSystem/cs-riskcondition-eu-pcsp",
											"code": "47"
										}
									]
								}
							],
							"status": "cancelled"
						}
					}
				],
				"note": [
					{
						"extension": [
							{
								"url": "http://hl7.eu/fhir/ig/pcsp/StructureDefinition/annotation-type",
								"valueCodeableConcept": {
									"coding": [
										{
											"system": "http://hl7.eu/fhir/ig/pcsp/CodeSystem/cs-generic-eu-pcsp",
											"code": "nar-planNotes"
										}
									]
								}
							}
						],
						"text": "Chronische nierziekte graad 2: nefrotoxische medicatie te vermijden"
					},
					{
						"extension": [
							{
								"url": "http://hl7.eu/fhir/ig/pcsp/StructureDefinition/annotation-type",
								"valueCodeableConcept": {
									"coding": [
										{
											"code": "nar-chronicCond"
										},
										{
											"system": "http://hl7.eu/fhir/ig/pcsp/CodeSystem/cs-generic-eu-pcsp"
										}
									]
								}
							}
						],
						"text": "- Chronische migraine waarvoor Exedrin, opvolging neurologie                                               \r- Gastritis en vermoedelijk oesofagitis                                                                       \r- Lymfoedeem linker been, steunkous                                                                                \r- Chronische nierziekte graad 2: nefrotoxische medicatie te vermijden"
					}
				]
			},
			"search": {
				"mode": "match"
			}
		}
	]
}