{
  "resourceType": "Bundle",
  "meta": {
    "profile": [
      "http://hl7.org/fhir/StructureDefinition/Bundle"
    ]
  },
  "type": "transaction",
  "entry": [
    {
      "fullUrl": "urn:uuid:c9906ad9-35ea-4e0f-9020-4b65e7c9fc4c",
      "resource": {
        "resourceType": "Patient",
        "meta": {
          "profile": [
            "http://hl7.eu/fhir/ig/pcsp/StructureDefinition/Patient-eu-pcsp"
          ],
          "security": [
            {
              "system": "http://hl7.org/fhir/ValueSet/security-labels",
              "code": "SYSDEV"
            }
          ]
        },
        "language": "ES",
        "extension": [
          {
            "url": "http://hl7.org/fhir/StructureDefinition/patient-mothersMaidenName",
            "valueString": "0c6235100894f0d2b04e44258fd9fec4"
          }
        ],
        "identifier": [
          {
            "use": "official",
            "system": "urn:oid:2.16.724.4.10.50.200",
            "value": "908756"
          }
        ],
        "name": [
          {
            "use": "anonymous",
            "text": "800ec5728721481c251d0d3ee5793e82 46260ddcd8d338e988424474316c425c 0c6235100894f0d2b04e44258fd9fec4",
            "family": "46260ddcd8d338e988424474316c425c",
            "given": [
              "800ec5728721481c251d0d3ee5793e82"
            ]
          }
        ],
        "gender": "male",
        "birthDate": "1982-07-01",
        "communication": [
          {
            "language": {
              "coding": [
                {
                  "system": "urn:ietf:bcp:47",
                  "code": "es-ES",
                  "display": "Español"
                }
              ]
            }
          }
        ]
      },
      "request": {
        "method": "POST",
        "url": "Patient"
      }
    },
    {
      "fullUrl": "urn:uuid:e952d58a-93ea-40ad-b007-9e451d56c093",
      "resource": {
        "resourceType": "Condition",
        "meta": {
          "profile": [
            "http://hl7.eu/fhir/ig/pcsp/StructureDefinition/Condition-primaryCancer-eu-pcsp"
          ],
          "security": [
            {
              "system": "http://hl7.org/fhir/ValueSet/security-labels",
              "code": "SYSDEV"
            }
          ]
        },
        "language": "ES",
        "extension": [
          {
            "url": "http://hl7.org/fhir/StructureDefinition/condition-assertedDate",
            "valueDateTime": "2013-09-13"
          },
          {
            "url": "http://hl7.eu/fhir/ig/pcsp/StructureDefinition/mcode-histology-morphology-behavior",
            "valueCodeableConcept": {
              "coding": [
                {
                  "system": "http://hl7.org/fhir/sid/icd-o-3",
                  "code": "Carcinoma apendice cutaneo      ( maligno primario ) "
                }
              ]
            }
          }
        ],
        "bodySite": [
          {
            "coding": [
              {
                "code": "C47.2",
                "display": "Pierna ( C47.2 ) "
              }
            ],
            "text": "Cerca de la ingle"
          }
        ],
        "evidence": [
          {
            "code": [
              {
                "coding": [
                  {
                    "system": "http://snomed.info/sct",
                    "code": "365861007",
                    "display": "Evidencia de estado Inmune"
                  }
                ],
                "text": "Tiene inmunología"
              }
            ]
          },
          {
            "code": [
              {
                "coding": [
                  {
                    "system": "http://snomed.info/sct",
                    "code": "32895009",
                    "display": "Evidencia de Cáncer Hereditario"
                  }
                ],
                "text": "Síndrome de Rothmund Thomson "
              }
            ],
            "detail": [
              {
                "reference": "Observation/urn:uuid:81a2d524-cc15-44aa-91c1-a59ef165489c",
                "type": "Observation"
              }
            ]
          }
        ]
      },
      "request": {
        "method": "POST",
        "url": "Condition"
      }
    },
    {
      "resource": {
        "resourceType": "Condition",
        "meta": {
          "profile": [
            "http://hl7.eu/fhir/ig/pcsp/StructureDefinition/Condition-secondaryCancer-eu-pcsp"
          ],
          "security": [
            {
              "system": "http://hl7.org/fhir/ValueSet/security-labels",
              "code": "SYSDEV"
            }
          ]
        },
        "language": "ES",
        "extension": [
          {
            "url": "http://hl7.org/fhir/StructureDefinition/condition-related",
            "valueReference": {
              "reference": "Condition/urn:uuid:e952d58a-93ea-40ad-b007-9e451d56c093",
              "type": "Condition"
            }
          }
        ],
        "bodySite": [
          {
            "coding": [
              {
                "code": "C44.5",
                "display": "Ingle ( C44.5 ) "
              }
            ]
          }
        ],
        "subject": {
          "reference": "Patient/urn:uuid:c9906ad9-35ea-4e0f-9020-4b65e7c9fc4c",
          "type": "Patient"
        }
      },
      "request": {
        "method": "POST",
        "url": "Condition"
      }
    },
    {
      "resource": {
        "resourceType": "Condition",
        "meta": {
          "profile": [
            "http://hl7.eu/fhir/ig/pcsp/StructureDefinition/Condition-secondaryCancer-eu-pcsp"
          ],
          "security": [
            {
              "system": "http://hl7.org/fhir/ValueSet/security-labels",
              "code": "SYSDEV"
            }
          ]
        },
        "language": "ES",
        "extension": [
          {
            "url": "http://hl7.org/fhir/StructureDefinition/condition-related",
            "valueReference": {
              "reference": "Condition/urn:uuid:e952d58a-93ea-40ad-b007-9e451d56c093",
              "type": "Condition"
            }
          }
        ],
        "bodySite": [
          {
            "coding": [
              {
                "code": "C17.9",
                "display": "Intestino delgado NE ( C17.9 ) "
              }
            ]
          }
        ],
        "subject": {
          "reference": "Patient/urn:uuid:c9906ad9-35ea-4e0f-9020-4b65e7c9fc4c",
          "type": "Patient"
        }
      },
      "request": {
        "method": "POST",
        "url": "Condition"
      }
    },
    {
      "fullUrl": "urn:uuid:81a2d524-cc15-44aa-91c1-a59ef165489c",
      "resource": {
        "resourceType": "Observation",
        "meta": {
          "profile": [
            "http://hl7.eu/fhir/ig/pcsp/StructureDefinition/Observation-predisposition-eu-pcsp"
          ],
          "security": [
            {
              "system": "http://hl7.org/fhir/ValueSet/security-labels",
              "code": "SYSDEV"
            }
          ]
        },
        "language": "ES",
        "code": {
          "coding": [
            {
              "system": "http://snomed.info/sct",
              "code": "32895009",
              "display": "Evidencia de Cáncer Hereditario"
            }
          ]
        },
        "valueCodeableConcept": {
          "coding": [
            {
              "code": "2909",
              "display": "Síndrome de Rothmund Thomson "
            }
          ]
        }
      },
      "request": {
        "method": "POST",
        "url": "Observation"
      }
    }
		]
}